test_object,true_type,classified_as,decision_value,material_name,rigidity,glossiness,decision_value_norm,Glossiness,Rigidity,Enviroment_Map,Texture,init_rot,end_rot,Force,disp_scale,disp_depth,glossID,rigidID,type_truncted,type8way,detail,decisionNormalized,obj_dir,shiny_adap_trials.thisRepN,shiny_adap_trials.thisTrialN,shiny_adap_trials.thisN,shiny_adap_trials.thisIndex,gloss_trials.thisRepN,gloss_trials.thisTrialN,gloss_trials.thisN,gloss_trials.thisIndex,high_dec_dir,low_dec_dir,groundTruth,highly,lowInd,highDecision,lowDecision,deltaDecision,actual_target_pos,response.keys,response.rt,participant,session,date,expName,psychopyVersion,frameRate,
126,0,0,-23.74143063,"shiny_soft_gothicManor_None_[7, 0, 0]_[7, 0, 0]_CHARGE_1.961_1_5",soft,shiny,-1.0,shiny,soft,gothicManor,None,"[7, 0, 0]","[7, 0, 0]",CHARGE,1.961,1,0,1,1,-1,-1,-0.777101626,validationSet_v7_movies/126.mp4,,,,,0,0,0,0,validationSet_v7_movies/294.mp4,validationSet_v7_movies/311.mp4,shiny,294,311,-0.593384189,-0.020533448,-0.644702286,left,left,0.6679245000123046,621781,001,2023-04-06_17h50.03.830,non_rigid_shiny_experiment_v3,2022.2.4,60.09752627013749,
182,0,0,-20.90701178,"shiny_soft_abandoned_None_[86, 0, 0]_[86, 0, 0]_WIND_1.99_2_7",soft,shiny,-0.895587453,shiny,soft,abandoned,None,"[86, 0, 0]","[86, 0, 0]",WIND,1.99,2,0,1,1,-1,-1,-0.684325772,validationSet_v7_movies/182.mp4,,,,,0,1,1,1,validationSet_v7_movies/110.mp4,validationSet_v7_movies/366.mp4,shiny,110,366,-0.582716876,0.09018918,-0.757307343,left,left,0.0720967999950517,621781,001,2023-04-06_17h50.03.830,non_rigid_shiny_experiment_v3,2022.2.4,60.09752627013749,
298,0,0,-19.53749142,"shiny_rigid_machineShop_None_[19, 0, 0]_[-46, -50, -54]_None_1.838_2_5",rigid,shiny,-0.845137919,shiny,rigid,machineShop,None,"[19, 0, 0]","[-46, -50, -54]",None,1.838,2,0,0,2,1,1,-0.639498798,validationSet_v7_movies/298.mp4,,,,,0,2,2,2,validationSet_v7_movies/280.mp4,validationSet_v7_movies/340.mp4,shiny,280,340,-0.570944753,-0.007059391,-0.634612398,right,left,0.232096099993214,621781,001,2023-04-06_17h50.03.830,non_rigid_shiny_experiment_v3,2022.2.4,60.09752627013749,
281,0,0,-18.99610056,"shiny_rigid_machineShop_None_[76, 0, 0]_[-53, 38, 48]_None_1.693_2_0",rigid,shiny,-0.825194501,shiny,rigid,machineShop,None,"[76, 0, 0]","[-53, 38, 48]",None,1.693,2,0,0,2,1,1,-0.621778058,validationSet_v7_movies/281.mp4,,,,,0,3,3,3,validationSet_v7_movies/298.mp4,validationSet_v7_movies/67.mp4,shiny,298,67,-0.639498798,0.137511452,-0.874469123,right,left,0.17271849999087863,621781,001,2023-04-06_17h50.03.830,non_rigid_shiny_experiment_v3,2022.2.4,60.09752627013749,
282,0,0,-18.18064232,"shiny_rigid_machineShop_None_[68, 0, 0]_[48, 43, -35]_None_1.08_0_14",rigid,shiny,-0.795155161,shiny,rigid,machineShop,None,"[68, 0, 0]","[48, 43, -35]",None,1.08,0,0,0,2,1,1,-0.595086578,validationSet_v7_movies/282.mp4,,,,,0,4,4,4,validationSet_v7_movies/126.mp4,validationSet_v7_movies/392.mp4,shiny,126,392,-0.777101626,-0.002595989,-0.871650361,right,left,0.20357549999607727,621781,001,2023-04-06_17h50.03.830,non_rigid_shiny_experiment_v3,2022.2.4,60.09752627013749,
294,0,0,-18.1286322,"shiny_rigid_machineShop_None_[26, 0, 0]_[48, -42, -46]_None_1.876_2_15",rigid,shiny,-0.793239245,shiny,rigid,machineShop,None,"[26, 0, 0]","[48, -42, -46]",None,1.876,2,0,0,2,1,1,-0.593384189,validationSet_v7_movies/294.mp4,,,,,0,5,5,5,validationSet_v7_movies/281.mp4,validationSet_v7_movies/188.mp4,shiny,281,188,-0.621778058,0.113420068,-0.827412586,right,left,0.18451469999854453,621781,001,2023-04-06_17h50.03.830,non_rigid_shiny_experiment_v3,2022.2.4,60.09752627013749,
110,0,0,-17.80273237,"shiny_soft_lobby_None_[61, 0, 0]_[61, 0, 0]_FORCE_1.816_1_19",soft,shiny,-0.781233951,shiny,soft,lobby,None,"[61, 0, 0]","[61, 0, 0]",FORCE,1.816,1,0,1,1,-1,-1,-0.582716876,validationSet_v7_movies/110.mp4,,,,,0,6,6,6,validationSet_v7_movies/182.mp4,validationSet_v7_movies/155.mp4,shiny,182,155,-0.684325772,0.053612941,-0.83049692,right,left,0.1909702999982983,621781,001,2023-04-06_17h50.03.830,non_rigid_shiny_experiment_v3,2022.2.4,60.09752627013749,
151,0,0,-17.78750367,"shiny_soft_galileo_None_[54, 0, 0]_[54, 0, 0]_MAGNET_1.292_0_7",soft,shiny,-0.780672966,shiny,soft,galileo,None,"[54, 0, 0]","[54, 0, 0]",MAGNET,1.292,0,0,1,1,-1,-1,-0.582218412,validationSet_v7_movies/151.mp4,,,,,0,7,7,7,validationSet_v7_movies/282.mp4,validationSet_v7_movies/264.mp4,shiny,282,264,-0.595086578,0.03223399,-0.706004158,left,left,0.028190299984999,621781,001,2023-04-06_17h50.03.830,non_rigid_shiny_experiment_v3,2022.2.4,60.09752627013749,
280,0,0,-17.44307924,"shiny_rigid_machineShop_None_[88, 0, 0]_[-54, -35, 29]_None_1.046_0_11",rigid,shiny,-0.767985274,shiny,rigid,machineShop,None,"[88, 0, 0]","[-54, -35, 29]",None,1.046,0,0,0,2,1,1,-0.570944753,validationSet_v7_movies/280.mp4,,,,,0,8,8,8,validationSet_v7_movies/117.mp4,validationSet_v7_movies/276.mp4,shiny,117,276,-0.562854078,-0.009930609,-0.622275577,right,left,0.183128399978159,621781,001,2023-04-06_17h50.03.830,non_rigid_shiny_experiment_v3,2022.2.4,60.09752627013749,
117,0,0,-17.19589897,"shiny_soft_lobby_None_[12, 0, 0]_[12, 0, 0]_WIND_1.567_1_13",soft,shiny,-0.758879802,shiny,soft,lobby,None,"[12, 0, 0]","[12, 0, 0]",WIND,1.567,1,0,1,1,-1,-1,-0.562854078,validationSet_v7_movies/117.mp4,,,,,0,9,9,9,validationSet_v7_movies/151.mp4,validationSet_v7_movies/235.mp4,shiny,151,235,-0.582218412,-0.019665532,-0.633112785,right,left,0.12294119998114184,621781,001,2023-04-06_17h50.03.830,non_rigid_shiny_experiment_v3,2022.2.4,60.09752627013749,
311,0,0,-0.627322638,"shiny_rigid_lobby_None_[32, 0, 0]_[47, -44, 0]_None_1.844_2_15",rigid,shiny,-0.148536959,shiny,rigid,lobby,None,"[32, 0, 0]","[47, -44, 0]",None,1.844,2,0,0,2,1,1,-0.020533448,validationSet_v7_movies/311.mp4,,,,,0,10,10,10,validationSet_v7_movies/294.mp4,validationSet_v7_movies/235.mp4,shiny,294,235,-0.593384189,-0.019665532,-0.645679064,left,left,0.22508640002342872,621781,001,2023-04-06_17h50.03.830,non_rigid_shiny_experiment_v3,2022.2.4,60.09752627013749,
235,0,0,-0.60080669,"shiny_rigid_uenoShrine_None_[31, 0, 0]_[-44, 30, 36]_None_0.941_0_5",rigid,shiny,-0.147560181,shiny,rigid,uenoShrine,None,"[31, 0, 0]","[-44, 30, 36]",None,0.941,0,0,0,2,1,1,-0.019665532,validationSet_v7_movies/235.mp4,,,,,0,11,11,11,validationSet_v7_movies/110.mp4,validationSet_v7_movies/311.mp4,shiny,110,311,-0.582716876,-0.020533448,-0.6326969920000001,left,left,0.23062350001418963,621781,001,2023-04-06_17h50.03.830,non_rigid_shiny_experiment_v3,2022.2.4,60.09752627013749,
276,0,0,-0.303392566,"shiny_rigid_rnl_None_[21, 0, 0]_[-46, 39, 0]_None_1.97_2_19",rigid,shiny,-0.136604225,shiny,rigid,rnl,None,"[21, 0, 0]","[-46, 39, 0]",None,1.97,2,0,0,2,1,1,-0.009930609,validationSet_v7_movies/276.mp4,,,,,0,12,12,12,validationSet_v7_movies/280.mp4,validationSet_v7_movies/366.mp4,shiny,280,366,-0.570944753,0.09018918,-0.744058666,left,left,0.07401700000627898,621781,001,2023-04-06_17h50.03.830,non_rigid_shiny_experiment_v3,2022.2.4,60.09752627013749,
340,0,0,-0.215673261,"shiny_rigid_galileo_None_[9, 0, 0]_[-52, -57, -37]_None_1.011_0_6",rigid,shiny,-0.133372876,shiny,rigid,galileo,None,"[9, 0, 0]","[-52, -57, -37]",None,1.011,0,0,0,2,1,1,-0.007059391,validationSet_v7_movies/340.mp4,,,,,0,13,13,13,validationSet_v7_movies/298.mp4,validationSet_v7_movies/340.mp4,shiny,298,340,-0.639498798,-0.007059391,-0.711765043,left,left,0.05732010002247989,621781,001,2023-04-06_17h50.03.830,non_rigid_shiny_experiment_v3,2022.2.4,60.09752627013749,
392,0,0,-0.079310728,"shiny_rigid_abandoned_None_[30, 0, 0]_[29, 35, 43]_None_1.516_2_9",rigid,shiny,-0.128349639,shiny,rigid,abandoned,None,"[30, 0, 0]","[29, 35, 43]",None,1.516,2,0,0,2,1,1,-0.002595989,validationSet_v7_movies/392.mp4,,,,,0,14,14,14,validationSet_v7_movies/126.mp4,validationSet_v7_movies/67.mp4,shiny,126,67,-0.777101626,0.137511452,-1.029331204,left,left,0.022676299995509908,621781,001,2023-04-06_17h50.03.830,non_rigid_shiny_experiment_v3,2022.2.4,60.09752627013749,
264,0,1,0.984788891,"shiny_rigid_rnl_None_[66, 0, 0]_[33, -42, 42]_None_1.956_1_2",rigid,shiny,-0.089151003,shiny,rigid,rnl,None,"[66, 0, 0]","[33, -42, 42]",None,1.956,1,0,0,2,1,1,0.03223399,validationSet_v7_movies/264.mp4,,,,,0,15,15,15,validationSet_v7_movies/281.mp4,validationSet_v7_movies/392.mp4,shiny,281,392,-0.621778058,-0.002595989,-0.6968448620000001,right,left,0.1811738999967929,621781,001,2023-04-06_17h50.03.830,non_rigid_shiny_experiment_v3,2022.2.4,60.09752627013749,
155,0,1,1.637942683,"shiny_soft_galileo_None_[24, 0, 0]_[24, 0, 0]_VORTEX_0.969_0_4",soft,shiny,-0.065090533,shiny,soft,galileo,None,"[24, 0, 0]","[24, 0, 0]",VORTEX,0.969,0,0,1,1,-1,-1,0.053612941,validationSet_v7_movies/155.mp4,,,,,0,16,16,16,validationSet_v7_movies/182.mp4,validationSet_v7_movies/188.mp4,shiny,182,188,-0.684325772,0.113420068,-0.897805538,right,left,0.156651299999794,621781,001,2023-04-06_17h50.03.830,non_rigid_shiny_experiment_v3,2022.2.4,60.09752627013749,
366,0,1,2.755392713,"shiny_rigid_castel_None_[71, 0, 0]_[-32, -29, -43]_None_1.897_2_18",rigid,shiny,-0.023926608,shiny,rigid,castel,None,"[71, 0, 0]","[-32, -29, -43]",None,1.897,2,0,0,2,1,1,0.09018918,validationSet_v7_movies/366.mp4,,,,,0,17,17,17,validationSet_v7_movies/282.mp4,validationSet_v7_movies/155.mp4,shiny,282,155,-0.595086578,0.053612941,-0.730064628,right,left,0.05267889998503961,621781,001,2023-04-06_17h50.03.830,non_rigid_shiny_experiment_v3,2022.2.4,60.09752627013749,
188,0,1,3.465125528,"shiny_soft_abandoned_None_[61, 0, 0]_[61, 0, 0]_FORCE_1.086_0_0",soft,shiny,0.002218085,shiny,soft,abandoned,None,"[61, 0, 0]","[61, 0, 0]",FORCE,1.086,0,0,1,1,-1,-1,0.113420068,validationSet_v7_movies/188.mp4,,,,,0,18,18,18,validationSet_v7_movies/117.mp4,validationSet_v7_movies/264.mp4,shiny,117,264,-0.562854078,0.03223399,-0.669728799,right,left,0.16613469997537322,621781,001,2023-04-06_17h50.03.830,non_rigid_shiny_experiment_v3,2022.2.4,60.09752627013749,
67,0,1,4.201147548,"shiny_soft_rnl_None_[69, 0, 0]_[69, 0, 0]_TURBULENCE_1.408_1_6",soft,shiny,0.029331204,shiny,soft,rnl,None,"[69, 0, 0]","[69, 0, 0]",TURBULENCE,1.408,1,0,1,1,-1,-1,0.137511452,validationSet_v7_movies/67.mp4,,,,,0,19,19,19,validationSet_v7_movies/151.mp4,validationSet_v7_movies/276.mp4,shiny,151,276,-0.582218412,-0.009930609,-0.644068741,left,left,0.16879549997975118,621781,001,2023-04-06_17h50.03.830,non_rigid_shiny_experiment_v3,2022.2.4,60.09752627013749,
126,0,0,-23.74143063,"shiny_soft_gothicManor_None_[7, 0, 0]_[7, 0, 0]_CHARGE_1.961_1_5",soft,shiny,-1.0,shiny,soft,gothicManor,None,"[7, 0, 0]","[7, 0, 0]",CHARGE,1.961,1,0,1,1,-1,-1,-0.777101626,validationSet_v7_movies/126.mp4,,,,,1,0,20,0,validationSet_v7_movies/294.mp4,validationSet_v7_movies/276.mp4,shiny,294,276,-0.593384189,-0.009930609,-0.65663502,right,left,0.19411290000425652,621781,001,2023-04-06_17h50.03.830,non_rigid_shiny_experiment_v3,2022.2.4,60.09752627013749,
182,0,0,-20.90701178,"shiny_soft_abandoned_None_[86, 0, 0]_[86, 0, 0]_WIND_1.99_2_7",soft,shiny,-0.895587453,shiny,soft,abandoned,None,"[86, 0, 0]","[86, 0, 0]",WIND,1.99,2,0,1,1,-1,-1,-0.684325772,validationSet_v7_movies/182.mp4,,,,,1,1,21,1,validationSet_v7_movies/110.mp4,validationSet_v7_movies/235.mp4,shiny,110,235,-0.582716876,-0.019665532,-0.63367377,left,left,0.08797269998467527,621781,001,2023-04-06_17h50.03.830,non_rigid_shiny_experiment_v3,2022.2.4,60.09752627013749,
298,0,0,-19.53749142,"shiny_rigid_machineShop_None_[19, 0, 0]_[-46, -50, -54]_None_1.838_2_5",rigid,shiny,-0.845137919,shiny,rigid,machineShop,None,"[19, 0, 0]","[-46, -50, -54]",None,1.838,2,0,0,2,1,1,-0.639498798,validationSet_v7_movies/298.mp4,,,,,1,2,22,2,validationSet_v7_movies/280.mp4,validationSet_v7_movies/311.mp4,shiny,280,311,-0.570944753,-0.020533448,-0.6194483150000001,left,left,0.17542849999153987,621781,001,2023-04-06_17h50.03.830,non_rigid_shiny_experiment_v3,2022.2.4,60.09752627013749,
281,0,0,-18.99610056,"shiny_rigid_machineShop_None_[76, 0, 0]_[-53, 38, 48]_None_1.693_2_0",rigid,shiny,-0.825194501,shiny,rigid,machineShop,None,"[76, 0, 0]","[-53, 38, 48]",None,1.693,2,0,0,2,1,1,-0.621778058,validationSet_v7_movies/281.mp4,,,,,1,3,23,3,validationSet_v7_movies/298.mp4,validationSet_v7_movies/366.mp4,shiny,298,366,-0.639498798,0.09018918,-0.821211311,left,left,0.16233379999175668,621781,001,2023-04-06_17h50.03.830,non_rigid_shiny_experiment_v3,2022.2.4,60.09752627013749,
282,0,0,-18.18064232,"shiny_rigid_machineShop_None_[68, 0, 0]_[48, 43, -35]_None_1.08_0_14",rigid,shiny,-0.795155161,shiny,rigid,machineShop,None,"[68, 0, 0]","[48, 43, -35]",None,1.08,0,0,0,2,1,1,-0.595086578,validationSet_v7_movies/282.mp4,,,,,1,4,24,4,validationSet_v7_movies/126.mp4,validationSet_v7_movies/340.mp4,shiny,126,340,-0.777101626,-0.007059391,-0.866627124,right,left,0.17212360000121407,621781,001,2023-04-06_17h50.03.830,non_rigid_shiny_experiment_v3,2022.2.4,60.09752627013749,
294,0,0,-18.1286322,"shiny_rigid_machineShop_None_[26, 0, 0]_[48, -42, -46]_None_1.876_2_15",rigid,shiny,-0.793239245,shiny,rigid,machineShop,None,"[26, 0, 0]","[48, -42, -46]",None,1.876,2,0,0,2,1,1,-0.593384189,validationSet_v7_movies/294.mp4,,,,,1,5,25,5,validationSet_v7_movies/281.mp4,validationSet_v7_movies/67.mp4,shiny,281,67,-0.621778058,0.137511452,-0.854525705,right,left,0.2137151999922935,621781,001,2023-04-06_17h50.03.830,non_rigid_shiny_experiment_v3,2022.2.4,60.09752627013749,
110,0,0,-17.80273237,"shiny_soft_lobby_None_[61, 0, 0]_[61, 0, 0]_FORCE_1.816_1_19",soft,shiny,-0.781233951,shiny,soft,lobby,None,"[61, 0, 0]","[61, 0, 0]",FORCE,1.816,1,0,1,1,-1,-1,-0.582716876,validationSet_v7_movies/110.mp4,,,,,1,6,26,6,validationSet_v7_movies/182.mp4,validationSet_v7_movies/392.mp4,shiny,182,392,-0.684325772,-0.002595989,-0.767237814,right,left,0.21824080002261326,621781,001,2023-04-06_17h50.03.830,non_rigid_shiny_experiment_v3,2022.2.4,60.09752627013749,
151,0,0,-17.78750367,"shiny_soft_galileo_None_[54, 0, 0]_[54, 0, 0]_MAGNET_1.292_0_7",soft,shiny,-0.780672966,shiny,soft,galileo,None,"[54, 0, 0]","[54, 0, 0]",MAGNET,1.292,0,0,1,1,-1,-1,-0.582218412,validationSet_v7_movies/151.mp4,,,,,1,7,27,7,validationSet_v7_movies/282.mp4,validationSet_v7_movies/188.mp4,shiny,282,188,-0.595086578,0.113420068,-0.797373246,right,left,0.002266399998916313,621781,001,2023-04-06_17h50.03.830,non_rigid_shiny_experiment_v3,2022.2.4,60.09752627013749,
280,0,0,-17.44307924,"shiny_rigid_machineShop_None_[88, 0, 0]_[-54, -35, 29]_None_1.046_0_11",rigid,shiny,-0.767985274,shiny,rigid,machineShop,None,"[88, 0, 0]","[-54, -35, 29]",None,1.046,0,0,0,2,1,1,-0.570944753,validationSet_v7_movies/280.mp4,,,,,1,8,28,8,validationSet_v7_movies/117.mp4,validationSet_v7_movies/155.mp4,shiny,117,155,-0.562854078,0.053612941,-0.693789269,left,left,0.33105690000229515,621781,001,2023-04-06_17h50.03.830,non_rigid_shiny_experiment_v3,2022.2.4,60.09752627013749,
117,0,0,-17.19589897,"shiny_soft_lobby_None_[12, 0, 0]_[12, 0, 0]_WIND_1.567_1_13",soft,shiny,-0.758879802,shiny,soft,lobby,None,"[12, 0, 0]","[12, 0, 0]",WIND,1.567,1,0,1,1,-1,-1,-0.562854078,validationSet_v7_movies/117.mp4,,,,,1,9,29,9,validationSet_v7_movies/151.mp4,validationSet_v7_movies/264.mp4,shiny,151,264,-0.582218412,0.03223399,-0.691521963,left,left,0.06045290001202375,621781,001,2023-04-06_17h50.03.830,non_rigid_shiny_experiment_v3,2022.2.4,60.09752627013749,
311,0,0,-0.627322638,"shiny_rigid_lobby_None_[32, 0, 0]_[47, -44, 0]_None_1.844_2_15",rigid,shiny,-0.148536959,shiny,rigid,lobby,None,"[32, 0, 0]","[47, -44, 0]",None,1.844,2,0,0,2,1,1,-0.020533448,validationSet_v7_movies/311.mp4,,,,,1,10,30,10,validationSet_v7_movies/294.mp4,validationSet_v7_movies/264.mp4,shiny,294,264,-0.593384189,0.03223399,-0.704088242,left,left,0.02497989998664707,621781,001,2023-04-06_17h50.03.830,non_rigid_shiny_experiment_v3,2022.2.4,60.09752627013749,
235,0,0,-0.60080669,"shiny_rigid_uenoShrine_None_[31, 0, 0]_[-44, 30, 36]_None_0.941_0_5",rigid,shiny,-0.147560181,shiny,rigid,uenoShrine,None,"[31, 0, 0]","[-44, 30, 36]",None,0.941,0,0,0,2,1,1,-0.019665532,validationSet_v7_movies/235.mp4,,,,,1,11,31,11,validationSet_v7_movies/110.mp4,validationSet_v7_movies/276.mp4,shiny,110,276,-0.582716876,-0.009930609,-0.644629726,left,left,0.14726969998446293,621781,001,2023-04-06_17h50.03.830,non_rigid_shiny_experiment_v3,2022.2.4,60.09752627013749,
276,0,0,-0.303392566,"shiny_rigid_rnl_None_[21, 0, 0]_[-46, 39, 0]_None_1.97_2_19",rigid,shiny,-0.136604225,shiny,rigid,rnl,None,"[21, 0, 0]","[-46, 39, 0]",None,1.97,2,0,0,2,1,1,-0.009930609,validationSet_v7_movies/276.mp4,,,,,1,12,32,12,validationSet_v7_movies/280.mp4,validationSet_v7_movies/235.mp4,shiny,280,235,-0.570944753,-0.019665532,-0.620425093,right,left,0.8918278999917675,621781,001,2023-04-06_17h50.03.830,non_rigid_shiny_experiment_v3,2022.2.4,60.09752627013749,
340,0,0,-0.215673261,"shiny_rigid_galileo_None_[9, 0, 0]_[-52, -57, -37]_None_1.011_0_6",rigid,shiny,-0.133372876,shiny,rigid,galileo,None,"[9, 0, 0]","[-52, -57, -37]",None,1.011,0,0,0,2,1,1,-0.007059391,validationSet_v7_movies/340.mp4,,,,,1,13,33,13,validationSet_v7_movies/298.mp4,validationSet_v7_movies/311.mp4,shiny,298,311,-0.639498798,-0.020533448,-0.69660096,right,right,0.18061720000696369,621781,001,2023-04-06_17h50.03.830,non_rigid_shiny_experiment_v3,2022.2.4,60.09752627013749,
392,0,0,-0.079310728,"shiny_rigid_abandoned_None_[30, 0, 0]_[29, 35, 43]_None_1.516_2_9",rigid,shiny,-0.128349639,shiny,rigid,abandoned,None,"[30, 0, 0]","[29, 35, 43]",None,1.516,2,0,0,2,1,1,-0.002595989,validationSet_v7_movies/392.mp4,,,,,1,14,34,14,validationSet_v7_movies/126.mp4,validationSet_v7_movies/366.mp4,shiny,126,366,-0.777101626,0.09018918,-0.976073392,left,left,0.5152563999872655,621781,001,2023-04-06_17h50.03.830,non_rigid_shiny_experiment_v3,2022.2.4,60.09752627013749,
264,0,1,0.984788891,"shiny_rigid_rnl_None_[66, 0, 0]_[33, -42, 42]_None_1.956_1_2",rigid,shiny,-0.089151003,shiny,rigid,rnl,None,"[66, 0, 0]","[33, -42, 42]",None,1.956,1,0,0,2,1,1,0.03223399,validationSet_v7_movies/264.mp4,,,,,1,15,35,15,validationSet_v7_movies/281.mp4,validationSet_v7_movies/340.mp4,shiny,281,340,-0.621778058,-0.007059391,-0.691821625,right,left,0.24603740000748076,621781,001,2023-04-06_17h50.03.830,non_rigid_shiny_experiment_v3,2022.2.4,60.09752627013749,
155,0,1,1.637942683,"shiny_soft_galileo_None_[24, 0, 0]_[24, 0, 0]_VORTEX_0.969_0_4",soft,shiny,-0.065090533,shiny,soft,galileo,None,"[24, 0, 0]","[24, 0, 0]",VORTEX,0.969,0,0,1,1,-1,-1,0.053612941,validationSet_v7_movies/155.mp4,,,,,1,16,36,16,validationSet_v7_movies/182.mp4,validationSet_v7_movies/67.mp4,shiny,182,67,-0.684325772,0.137511452,-0.924918657,left,right,0.5045264999789651,621781,001,2023-04-06_17h50.03.830,non_rigid_shiny_experiment_v3,2022.2.4,60.09752627013749,
366,0,1,2.755392713,"shiny_rigid_castel_None_[71, 0, 0]_[-32, -29, -43]_None_1.897_2_18",rigid,shiny,-0.023926608,shiny,rigid,castel,None,"[71, 0, 0]","[-32, -29, -43]",None,1.897,2,0,0,2,1,1,0.09018918,validationSet_v7_movies/366.mp4,,,,,1,17,37,17,validationSet_v7_movies/282.mp4,validationSet_v7_movies/392.mp4,shiny,282,392,-0.595086578,-0.002595989,-0.6668055220000001,right,left,0.308864699996775,621781,001,2023-04-06_17h50.03.830,non_rigid_shiny_experiment_v3,2022.2.4,60.09752627013749,
188,0,1,3.465125528,"shiny_soft_abandoned_None_[61, 0, 0]_[61, 0, 0]_FORCE_1.086_0_0",soft,shiny,0.002218085,shiny,soft,abandoned,None,"[61, 0, 0]","[61, 0, 0]",FORCE,1.086,0,0,1,1,-1,-1,0.113420068,validationSet_v7_movies/188.mp4,,,,,1,18,38,18,validationSet_v7_movies/117.mp4,validationSet_v7_movies/188.mp4,shiny,117,188,-0.562854078,0.113420068,-0.761097887,left,left,0.02391020001959987,621781,001,2023-04-06_17h50.03.830,non_rigid_shiny_experiment_v3,2022.2.4,60.09752627013749,
67,0,1,4.201147548,"shiny_soft_rnl_None_[69, 0, 0]_[69, 0, 0]_TURBULENCE_1.408_1_6",soft,shiny,0.029331204,shiny,soft,rnl,None,"[69, 0, 0]","[69, 0, 0]",TURBULENCE,1.408,1,0,1,1,-1,-1,0.137511452,validationSet_v7_movies/67.mp4,,,,,1,19,39,19,validationSet_v7_movies/151.mp4,validationSet_v7_movies/155.mp4,shiny,151,155,-0.582218412,0.053612941,-0.715582433,right,right,0.08226270001614466,621781,001,2023-04-06_17h50.03.830,non_rigid_shiny_experiment_v3,2022.2.4,60.09752627013749,
126,0,0,-23.74143063,"shiny_soft_gothicManor_None_[7, 0, 0]_[7, 0, 0]_CHARGE_1.961_1_5",soft,shiny,-1.0,shiny,soft,gothicManor,None,"[7, 0, 0]","[7, 0, 0]",CHARGE,1.961,1,0,1,1,-1,-1,-0.777101626,validationSet_v7_movies/126.mp4,,,,,2,0,40,0,validationSet_v7_movies/294.mp4,validationSet_v7_movies/155.mp4,shiny,294,155,-0.593384189,0.053612941,-0.728148712,right,right,0.04504699999233708,621781,001,2023-04-06_17h50.03.830,non_rigid_shiny_experiment_v3,2022.2.4,60.09752627013749,
182,0,0,-20.90701178,"shiny_soft_abandoned_None_[86, 0, 0]_[86, 0, 0]_WIND_1.99_2_7",soft,shiny,-0.895587453,shiny,soft,abandoned,None,"[86, 0, 0]","[86, 0, 0]",WIND,1.99,2,0,1,1,-1,-1,-0.684325772,validationSet_v7_movies/182.mp4,,,,,2,1,41,1,validationSet_v7_movies/110.mp4,validationSet_v7_movies/264.mp4,shiny,110,264,-0.582716876,0.03223399,-0.692082948,left,right,0.11160129998461343,621781,001,2023-04-06_17h50.03.830,non_rigid_shiny_experiment_v3,2022.2.4,60.09752627013749,
298,0,0,-19.53749142,"shiny_rigid_machineShop_None_[19, 0, 0]_[-46, -50, -54]_None_1.838_2_5",rigid,shiny,-0.845137919,shiny,rigid,machineShop,None,"[19, 0, 0]","[-46, -50, -54]",None,1.838,2,0,0,2,1,1,-0.639498798,validationSet_v7_movies/298.mp4,,,,,2,2,42,2,validationSet_v7_movies/280.mp4,validationSet_v7_movies/276.mp4,shiny,280,276,-0.570944753,-0.009930609,-0.631381049,left,left,0.21990630001528189,621781,001,2023-04-06_17h50.03.830,non_rigid_shiny_experiment_v3,2022.2.4,60.09752627013749,
281,0,0,-18.99610056,"shiny_rigid_machineShop_None_[76, 0, 0]_[-53, 38, 48]_None_1.693_2_0",rigid,shiny,-0.825194501,shiny,rigid,machineShop,None,"[76, 0, 0]","[-53, 38, 48]",None,1.693,2,0,0,2,1,1,-0.621778058,validationSet_v7_movies/281.mp4,,,,,2,3,43,3,validationSet_v7_movies/298.mp4,validationSet_v7_movies/235.mp4,shiny,298,235,-0.639498798,-0.019665532,-0.697577738,right,right,0.22871030002715997,621781,001,2023-04-06_17h50.03.830,non_rigid_shiny_experiment_v3,2022.2.4,60.09752627013749,
282,0,0,-18.18064232,"shiny_rigid_machineShop_None_[68, 0, 0]_[48, 43, -35]_None_1.08_0_14",rigid,shiny,-0.795155161,shiny,rigid,machineShop,None,"[68, 0, 0]","[48, 43, -35]",None,1.08,0,0,0,2,1,1,-0.595086578,validationSet_v7_movies/282.mp4,,,,,2,4,44,4,validationSet_v7_movies/126.mp4,validationSet_v7_movies/311.mp4,shiny,126,311,-0.777101626,-0.020533448,-0.851463041,right,right,0.1822534000093583,621781,001,2023-04-06_17h50.03.830,non_rigid_shiny_experiment_v3,2022.2.4,60.09752627013749,
294,0,0,-18.1286322,"shiny_rigid_machineShop_None_[26, 0, 0]_[48, -42, -46]_None_1.876_2_15",rigid,shiny,-0.793239245,shiny,rigid,machineShop,None,"[26, 0, 0]","[48, -42, -46]",None,1.876,2,0,0,2,1,1,-0.593384189,validationSet_v7_movies/294.mp4,,,,,2,5,45,5,validationSet_v7_movies/281.mp4,validationSet_v7_movies/366.mp4,shiny,281,366,-0.621778058,0.09018918,-0.801267893,left,left,0.11481860000640154,621781,001,2023-04-06_17h50.03.830,non_rigid_shiny_experiment_v3,2022.2.4,60.09752627013749,
110,0,0,-17.80273237,"shiny_soft_lobby_None_[61, 0, 0]_[61, 0, 0]_FORCE_1.816_1_19",soft,shiny,-0.781233951,shiny,soft,lobby,None,"[61, 0, 0]","[61, 0, 0]",FORCE,1.816,1,0,1,1,-1,-1,-0.582716876,validationSet_v7_movies/110.mp4,,,,,2,6,46,6,validationSet_v7_movies/182.mp4,validationSet_v7_movies/340.mp4,shiny,182,340,-0.684325772,-0.007059391,-0.762214577,left,right,0.039438000007066876,621781,001,2023-04-06_17h50.03.830,non_rigid_shiny_experiment_v3,2022.2.4,60.09752627013749,
151,0,0,-17.78750367,"shiny_soft_galileo_None_[54, 0, 0]_[54, 0, 0]_MAGNET_1.292_0_7",soft,shiny,-0.780672966,shiny,soft,galileo,None,"[54, 0, 0]","[54, 0, 0]",MAGNET,1.292,0,0,1,1,-1,-1,-0.582218412,validationSet_v7_movies/151.mp4,,,,,2,7,47,7,validationSet_v7_movies/282.mp4,validationSet_v7_movies/67.mp4,shiny,282,67,-0.595086578,0.137511452,-0.824486365,left,right,0.013098499999614432,621781,001,2023-04-06_17h50.03.830,non_rigid_shiny_experiment_v3,2022.2.4,60.09752627013749,
280,0,0,-17.44307924,"shiny_rigid_machineShop_None_[88, 0, 0]_[-54, -35, 29]_None_1.046_0_11",rigid,shiny,-0.767985274,shiny,rigid,machineShop,None,"[88, 0, 0]","[-54, -35, 29]",None,1.046,0,0,0,2,1,1,-0.570944753,validationSet_v7_movies/280.mp4,,,,,2,8,48,8,validationSet_v7_movies/117.mp4,validationSet_v7_movies/392.mp4,shiny,117,392,-0.562854078,-0.002595989,-0.6305301630000001,right,right,0.16474259999813512,621781,001,2023-04-06_17h50.03.830,non_rigid_shiny_experiment_v3,2022.2.4,60.09752627013749,
117,0,0,-17.19589897,"shiny_soft_lobby_None_[12, 0, 0]_[12, 0, 0]_WIND_1.567_1_13",soft,shiny,-0.758879802,shiny,soft,lobby,None,"[12, 0, 0]","[12, 0, 0]",WIND,1.567,1,0,1,1,-1,-1,-0.562854078,validationSet_v7_movies/117.mp4,,,,,2,9,49,9,validationSet_v7_movies/151.mp4,validationSet_v7_movies/188.mp4,shiny,151,188,-0.582218412,0.113420068,-0.782891051,left,left,0.18492120000883006,621781,001,2023-04-06_17h50.03.830,non_rigid_shiny_experiment_v3,2022.2.4,60.09752627013749,
311,0,0,-0.627322638,"shiny_rigid_lobby_None_[32, 0, 0]_[47, -44, 0]_None_1.844_2_15",rigid,shiny,-0.148536959,shiny,rigid,lobby,None,"[32, 0, 0]","[47, -44, 0]",None,1.844,2,0,0,2,1,1,-0.020533448,validationSet_v7_movies/311.mp4,,,,,2,10,50,10,validationSet_v7_movies/294.mp4,validationSet_v7_movies/188.mp4,shiny,294,188,-0.593384189,0.113420068,-0.79545733,right,left,0.014993100019637495,621781,001,2023-04-06_17h50.03.830,non_rigid_shiny_experiment_v3,2022.2.4,60.09752627013749,
235,0,0,-0.60080669,"shiny_rigid_uenoShrine_None_[31, 0, 0]_[-44, 30, 36]_None_0.941_0_5",rigid,shiny,-0.147560181,shiny,rigid,uenoShrine,None,"[31, 0, 0]","[-44, 30, 36]",None,0.941,0,0,0,2,1,1,-0.019665532,validationSet_v7_movies/235.mp4,,,,,2,11,51,11,validationSet_v7_movies/110.mp4,validationSet_v7_movies/155.mp4,shiny,110,155,-0.582716876,0.053612941,-0.716143418,right,left,0.14688280000700615,621781,001,2023-04-06_17h50.03.830,non_rigid_shiny_experiment_v3,2022.2.4,60.09752627013749,
276,0,0,-0.303392566,"shiny_rigid_rnl_None_[21, 0, 0]_[-46, 39, 0]_None_1.97_2_19",rigid,shiny,-0.136604225,shiny,rigid,rnl,None,"[21, 0, 0]","[-46, 39, 0]",None,1.97,2,0,0,2,1,1,-0.009930609,validationSet_v7_movies/276.mp4,,,,,2,12,52,12,validationSet_v7_movies/280.mp4,validationSet_v7_movies/264.mp4,shiny,280,264,-0.570944753,0.03223399,-0.678834271,left,left,0.020450300013180822,621781,001,2023-04-06_17h50.03.830,non_rigid_shiny_experiment_v3,2022.2.4,60.09752627013749,
340,0,0,-0.215673261,"shiny_rigid_galileo_None_[9, 0, 0]_[-52, -57, -37]_None_1.011_0_6",rigid,shiny,-0.133372876,shiny,rigid,galileo,None,"[9, 0, 0]","[-52, -57, -37]",None,1.011,0,0,0,2,1,1,-0.007059391,validationSet_v7_movies/340.mp4,,,,,2,13,53,13,validationSet_v7_movies/298.mp4,validationSet_v7_movies/276.mp4,shiny,298,276,-0.639498798,-0.009930609,-0.708533694,right,left,0.1963936999964062,621781,001,2023-04-06_17h50.03.830,non_rigid_shiny_experiment_v3,2022.2.4,60.09752627013749,
392,0,0,-0.079310728,"shiny_rigid_abandoned_None_[30, 0, 0]_[29, 35, 43]_None_1.516_2_9",rigid,shiny,-0.128349639,shiny,rigid,abandoned,None,"[30, 0, 0]","[29, 35, 43]",None,1.516,2,0,0,2,1,1,-0.002595989,validationSet_v7_movies/392.mp4,,,,,2,14,54,14,validationSet_v7_movies/126.mp4,validationSet_v7_movies/235.mp4,shiny,126,235,-0.777101626,-0.019665532,-0.852439819,right,right,0.12813960001221858,621781,001,2023-04-06_17h50.03.830,non_rigid_shiny_experiment_v3,2022.2.4,60.09752627013749,
264,0,1,0.984788891,"shiny_rigid_rnl_None_[66, 0, 0]_[33, -42, 42]_None_1.956_1_2",rigid,shiny,-0.089151003,shiny,rigid,rnl,None,"[66, 0, 0]","[33, -42, 42]",None,1.956,1,0,0,2,1,1,0.03223399,validationSet_v7_movies/264.mp4,,,,,2,15,55,15,validationSet_v7_movies/281.mp4,validationSet_v7_movies/311.mp4,shiny,281,311,-0.621778058,-0.020533448,-0.6766575420000001,right,right,0.1366128999798093,621781,001,2023-04-06_17h50.03.830,non_rigid_shiny_experiment_v3,2022.2.4,60.09752627013749,
155,0,1,1.637942683,"shiny_soft_galileo_None_[24, 0, 0]_[24, 0, 0]_VORTEX_0.969_0_4",soft,shiny,-0.065090533,shiny,soft,galileo,None,"[24, 0, 0]","[24, 0, 0]",VORTEX,0.969,0,0,1,1,-1,-1,0.053612941,validationSet_v7_movies/155.mp4,,,,,2,16,56,16,validationSet_v7_movies/182.mp4,validationSet_v7_movies/366.mp4,shiny,182,366,-0.684325772,0.09018918,-0.871660845,right,right,0.04560339997988194,621781,001,2023-04-06_17h50.03.830,non_rigid_shiny_experiment_v3,2022.2.4,60.09752627013749,
366,0,1,2.755392713,"shiny_rigid_castel_None_[71, 0, 0]_[-32, -29, -43]_None_1.897_2_18",rigid,shiny,-0.023926608,shiny,rigid,castel,None,"[71, 0, 0]","[-32, -29, -43]",None,1.897,2,0,0,2,1,1,0.09018918,validationSet_v7_movies/366.mp4,,,,,2,17,57,17,validationSet_v7_movies/282.mp4,validationSet_v7_movies/340.mp4,shiny,282,340,-0.595086578,-0.007059391,-0.661782285,right,right,0.09567300000344403,621781,001,2023-04-06_17h50.03.830,non_rigid_shiny_experiment_v3,2022.2.4,60.09752627013749,
188,0,1,3.465125528,"shiny_soft_abandoned_None_[61, 0, 0]_[61, 0, 0]_FORCE_1.086_0_0",soft,shiny,0.002218085,shiny,soft,abandoned,None,"[61, 0, 0]","[61, 0, 0]",FORCE,1.086,0,0,1,1,-1,-1,0.113420068,validationSet_v7_movies/188.mp4,,,,,2,18,58,18,validationSet_v7_movies/117.mp4,validationSet_v7_movies/67.mp4,shiny,117,67,-0.562854078,0.137511452,-0.788211006,left,right,0.04720259999157861,621781,001,2023-04-06_17h50.03.830,non_rigid_shiny_experiment_v3,2022.2.4,60.09752627013749,
67,0,1,4.201147548,"shiny_soft_rnl_None_[69, 0, 0]_[69, 0, 0]_TURBULENCE_1.408_1_6",soft,shiny,0.029331204,shiny,soft,rnl,None,"[69, 0, 0]","[69, 0, 0]",TURBULENCE,1.408,1,0,1,1,-1,-1,0.137511452,validationSet_v7_movies/67.mp4,,,,,2,19,59,19,validationSet_v7_movies/151.mp4,validationSet_v7_movies/392.mp4,shiny,151,392,-0.582218412,-0.002595989,-0.6523233270000001,right,right,0.010771100001875311,621781,001,2023-04-06_17h50.03.830,non_rigid_shiny_experiment_v3,2022.2.4,60.09752627013749,
126,0,0,-23.74143063,"shiny_soft_gothicManor_None_[7, 0, 0]_[7, 0, 0]_CHARGE_1.961_1_5",soft,shiny,-1.0,shiny,soft,gothicManor,None,"[7, 0, 0]","[7, 0, 0]",CHARGE,1.961,1,0,1,1,-1,-1,-0.777101626,validationSet_v7_movies/126.mp4,,,,,3,0,60,0,validationSet_v7_movies/294.mp4,validationSet_v7_movies/392.mp4,shiny,294,392,-0.593384189,-0.002595989,-0.664889606,left,right,0.1004485999874305,621781,001,2023-04-06_17h50.03.830,non_rigid_shiny_experiment_v3,2022.2.4,60.09752627013749,
182,0,0,-20.90701178,"shiny_soft_abandoned_None_[86, 0, 0]_[86, 0, 0]_WIND_1.99_2_7",soft,shiny,-0.895587453,shiny,soft,abandoned,None,"[86, 0, 0]","[86, 0, 0]",WIND,1.99,2,0,1,1,-1,-1,-0.684325772,validationSet_v7_movies/182.mp4,,,,,3,1,61,1,validationSet_v7_movies/110.mp4,validationSet_v7_movies/188.mp4,shiny,110,188,-0.582716876,0.113420068,-0.783452036,right,right,0.07233460000134073,621781,001,2023-04-06_17h50.03.830,non_rigid_shiny_experiment_v3,2022.2.4,60.09752627013749,
298,0,0,-19.53749142,"shiny_rigid_machineShop_None_[19, 0, 0]_[-46, -50, -54]_None_1.838_2_5",rigid,shiny,-0.845137919,shiny,rigid,machineShop,None,"[19, 0, 0]","[-46, -50, -54]",None,1.838,2,0,0,2,1,1,-0.639498798,validationSet_v7_movies/298.mp4,,,,,3,2,62,2,validationSet_v7_movies/280.mp4,validationSet_v7_movies/155.mp4,shiny,280,155,-0.570944753,0.053612941,-0.702894741,left,right,0.0751981999783311,621781,001,2023-04-06_17h50.03.830,non_rigid_shiny_experiment_v3,2022.2.4,60.09752627013749,
281,0,0,-18.99610056,"shiny_rigid_machineShop_None_[76, 0, 0]_[-53, 38, 48]_None_1.693_2_0",rigid,shiny,-0.825194501,shiny,rigid,machineShop,None,"[76, 0, 0]","[-53, 38, 48]",None,1.693,2,0,0,2,1,1,-0.621778058,validationSet_v7_movies/281.mp4,,,,,3,3,63,3,validationSet_v7_movies/298.mp4,validationSet_v7_movies/264.mp4,shiny,298,264,-0.639498798,0.03223399,-0.755986916,right,left,0.21739289999823086,621781,001,2023-04-06_17h50.03.830,non_rigid_shiny_experiment_v3,2022.2.4,60.09752627013749,
282,0,0,-18.18064232,"shiny_rigid_machineShop_None_[68, 0, 0]_[48, 43, -35]_None_1.08_0_14",rigid,shiny,-0.795155161,shiny,rigid,machineShop,None,"[68, 0, 0]","[48, 43, -35]",None,1.08,0,0,0,2,1,1,-0.595086578,validationSet_v7_movies/282.mp4,,,,,3,4,64,4,validationSet_v7_movies/126.mp4,validationSet_v7_movies/276.mp4,shiny,126,276,-0.777101626,-0.009930609,-0.863395775,left,left,0.200532499991823,621781,001,2023-04-06_17h50.03.830,non_rigid_shiny_experiment_v3,2022.2.4,60.09752627013749,
294,0,0,-18.1286322,"shiny_rigid_machineShop_None_[26, 0, 0]_[48, -42, -46]_None_1.876_2_15",rigid,shiny,-0.793239245,shiny,rigid,machineShop,None,"[26, 0, 0]","[48, -42, -46]",None,1.876,2,0,0,2,1,1,-0.593384189,validationSet_v7_movies/294.mp4,,,,,3,5,65,5,validationSet_v7_movies/281.mp4,validationSet_v7_movies/235.mp4,shiny,281,235,-0.621778058,-0.019665532,-0.67763432,left,left,0.09936409999500029,621781,001,2023-04-06_17h50.03.830,non_rigid_shiny_experiment_v3,2022.2.4,60.09752627013749,
110,0,0,-17.80273237,"shiny_soft_lobby_None_[61, 0, 0]_[61, 0, 0]_FORCE_1.816_1_19",soft,shiny,-0.781233951,shiny,soft,lobby,None,"[61, 0, 0]","[61, 0, 0]",FORCE,1.816,1,0,1,1,-1,-1,-0.582716876,validationSet_v7_movies/110.mp4,,,,,3,6,66,6,validationSet_v7_movies/182.mp4,validationSet_v7_movies/311.mp4,shiny,182,311,-0.684325772,-0.020533448,-0.747050494,right,left,0.044590999983483925,621781,001,2023-04-06_17h50.03.830,non_rigid_shiny_experiment_v3,2022.2.4,60.09752627013749,
151,0,0,-17.78750367,"shiny_soft_galileo_None_[54, 0, 0]_[54, 0, 0]_MAGNET_1.292_0_7",soft,shiny,-0.780672966,shiny,soft,galileo,None,"[54, 0, 0]","[54, 0, 0]",MAGNET,1.292,0,0,1,1,-1,-1,-0.582218412,validationSet_v7_movies/151.mp4,,,,,3,7,67,7,validationSet_v7_movies/282.mp4,validationSet_v7_movies/366.mp4,shiny,282,366,-0.595086578,0.09018918,-0.771228553,left,left,0.04472759997588582,621781,001,2023-04-06_17h50.03.830,non_rigid_shiny_experiment_v3,2022.2.4,60.09752627013749,
280,0,0,-17.44307924,"shiny_rigid_machineShop_None_[88, 0, 0]_[-54, -35, 29]_None_1.046_0_11",rigid,shiny,-0.767985274,shiny,rigid,machineShop,None,"[88, 0, 0]","[-54, -35, 29]",None,1.046,0,0,0,2,1,1,-0.570944753,validationSet_v7_movies/280.mp4,,,,,3,8,68,8,validationSet_v7_movies/117.mp4,validationSet_v7_movies/340.mp4,shiny,117,340,-0.562854078,-0.007059391,-0.625506926,right,right,0.1171567999990657,621781,001,2023-04-06_17h50.03.830,non_rigid_shiny_experiment_v3,2022.2.4,60.09752627013749,
117,0,0,-17.19589897,"shiny_soft_lobby_None_[12, 0, 0]_[12, 0, 0]_WIND_1.567_1_13",soft,shiny,-0.758879802,shiny,soft,lobby,None,"[12, 0, 0]","[12, 0, 0]",WIND,1.567,1,0,1,1,-1,-1,-0.562854078,validationSet_v7_movies/117.mp4,,,,,3,9,69,9,validationSet_v7_movies/151.mp4,validationSet_v7_movies/67.mp4,shiny,151,67,-0.582218412,0.137511452,-0.81000417,left,left,0.09747649999917485,621781,001,2023-04-06_17h50.03.830,non_rigid_shiny_experiment_v3,2022.2.4,60.09752627013749,
311,0,0,-0.627322638,"shiny_rigid_lobby_None_[32, 0, 0]_[47, -44, 0]_None_1.844_2_15",rigid,shiny,-0.148536959,shiny,rigid,lobby,None,"[32, 0, 0]","[47, -44, 0]",None,1.844,2,0,0,2,1,1,-0.020533448,validationSet_v7_movies/311.mp4,,,,,3,10,70,10,validationSet_v7_movies/294.mp4,validationSet_v7_movies/67.mp4,shiny,294,67,-0.593384189,0.137511452,-0.822570449,left,left,0.18089180000242777,621781,001,2023-04-06_17h50.03.830,non_rigid_shiny_experiment_v3,2022.2.4,60.09752627013749,
235,0,0,-0.60080669,"shiny_rigid_uenoShrine_None_[31, 0, 0]_[-44, 30, 36]_None_0.941_0_5",rigid,shiny,-0.147560181,shiny,rigid,uenoShrine,None,"[31, 0, 0]","[-44, 30, 36]",None,0.941,0,0,0,2,1,1,-0.019665532,validationSet_v7_movies/235.mp4,,,,,3,11,71,11,validationSet_v7_movies/110.mp4,validationSet_v7_movies/392.mp4,shiny,110,392,-0.582716876,-0.002595989,-0.6528843120000001,right,left,0.036922300001606345,621781,001,2023-04-06_17h50.03.830,non_rigid_shiny_experiment_v3,2022.2.4,60.09752627013749,
276,0,0,-0.303392566,"shiny_rigid_rnl_None_[21, 0, 0]_[-46, 39, 0]_None_1.97_2_19",rigid,shiny,-0.136604225,shiny,rigid,rnl,None,"[21, 0, 0]","[-46, 39, 0]",None,1.97,2,0,0,2,1,1,-0.009930609,validationSet_v7_movies/276.mp4,,,,,3,12,72,12,validationSet_v7_movies/280.mp4,validationSet_v7_movies/188.mp4,shiny,280,188,-0.570944753,0.113420068,-0.770203359,right,left,0.03284679999342188,621781,001,2023-04-06_17h50.03.830,non_rigid_shiny_experiment_v3,2022.2.4,60.09752627013749,
340,0,0,-0.215673261,"shiny_rigid_galileo_None_[9, 0, 0]_[-52, -57, -37]_None_1.011_0_6",rigid,shiny,-0.133372876,shiny,rigid,galileo,None,"[9, 0, 0]","[-52, -57, -37]",None,1.011,0,0,0,2,1,1,-0.007059391,validationSet_v7_movies/340.mp4,,,,,3,13,73,13,validationSet_v7_movies/298.mp4,validationSet_v7_movies/155.mp4,shiny,298,155,-0.639498798,0.053612941,-0.780047386,left,left,0.010506299993721768,621781,001,2023-04-06_17h50.03.830,non_rigid_shiny_experiment_v3,2022.2.4,60.09752627013749,
392,0,0,-0.079310728,"shiny_rigid_abandoned_None_[30, 0, 0]_[29, 35, 43]_None_1.516_2_9",rigid,shiny,-0.128349639,shiny,rigid,abandoned,None,"[30, 0, 0]","[29, 35, 43]",None,1.516,2,0,0,2,1,1,-0.002595989,validationSet_v7_movies/392.mp4,,,,,3,14,74,14,validationSet_v7_movies/126.mp4,validationSet_v7_movies/264.mp4,shiny,126,264,-0.777101626,0.03223399,-0.910848997,left,left,0.027764500002376735,621781,001,2023-04-06_17h50.03.830,non_rigid_shiny_experiment_v3,2022.2.4,60.09752627013749,
264,0,1,0.984788891,"shiny_rigid_rnl_None_[66, 0, 0]_[33, -42, 42]_None_1.956_1_2",rigid,shiny,-0.089151003,shiny,rigid,rnl,None,"[66, 0, 0]","[33, -42, 42]",None,1.956,1,0,0,2,1,1,0.03223399,validationSet_v7_movies/264.mp4,,,,,3,15,75,15,validationSet_v7_movies/281.mp4,validationSet_v7_movies/276.mp4,shiny,281,276,-0.621778058,-0.009930609,-0.688590276,left,left,0.0035287000064272434,621781,001,2023-04-06_17h50.03.830,non_rigid_shiny_experiment_v3,2022.2.4,60.09752627013749,
155,0,1,1.637942683,"shiny_soft_galileo_None_[24, 0, 0]_[24, 0, 0]_VORTEX_0.969_0_4",soft,shiny,-0.065090533,shiny,soft,galileo,None,"[24, 0, 0]","[24, 0, 0]",VORTEX,0.969,0,0,1,1,-1,-1,0.053612941,validationSet_v7_movies/155.mp4,,,,,3,16,76,16,validationSet_v7_movies/182.mp4,validationSet_v7_movies/235.mp4,shiny,182,235,-0.684325772,-0.019665532,-0.748027272,left,left,0.20380229997681454,621781,001,2023-04-06_17h50.03.830,non_rigid_shiny_experiment_v3,2022.2.4,60.09752627013749,
366,0,1,2.755392713,"shiny_rigid_castel_None_[71, 0, 0]_[-32, -29, -43]_None_1.897_2_18",rigid,shiny,-0.023926608,shiny,rigid,castel,None,"[71, 0, 0]","[-32, -29, -43]",None,1.897,2,0,0,2,1,1,0.09018918,validationSet_v7_movies/366.mp4,,,,,3,17,77,17,validationSet_v7_movies/282.mp4,validationSet_v7_movies/311.mp4,shiny,282,311,-0.595086578,-0.020533448,-0.6466182020000001,left,left,0.09422460000496358,621781,001,2023-04-06_17h50.03.830,non_rigid_shiny_experiment_v3,2022.2.4,60.09752627013749,
188,0,1,3.465125528,"shiny_soft_abandoned_None_[61, 0, 0]_[61, 0, 0]_FORCE_1.086_0_0",soft,shiny,0.002218085,shiny,soft,abandoned,None,"[61, 0, 0]","[61, 0, 0]",FORCE,1.086,0,0,1,1,-1,-1,0.113420068,validationSet_v7_movies/188.mp4,,,,,3,18,78,18,validationSet_v7_movies/117.mp4,validationSet_v7_movies/366.mp4,shiny,117,366,-0.562854078,0.09018918,-0.734953194,left,left,0.0054398000065702945,621781,001,2023-04-06_17h50.03.830,non_rigid_shiny_experiment_v3,2022.2.4,60.09752627013749,
67,0,1,4.201147548,"shiny_soft_rnl_None_[69, 0, 0]_[69, 0, 0]_TURBULENCE_1.408_1_6",soft,shiny,0.029331204,shiny,soft,rnl,None,"[69, 0, 0]","[69, 0, 0]",TURBULENCE,1.408,1,0,1,1,-1,-1,0.137511452,validationSet_v7_movies/67.mp4,,,,,3,19,79,19,validationSet_v7_movies/151.mp4,validationSet_v7_movies/340.mp4,shiny,151,340,-0.582218412,-0.007059391,-0.64730009,right,left,0.010566399985691532,621781,001,2023-04-06_17h50.03.830,non_rigid_shiny_experiment_v3,2022.2.4,60.09752627013749,
126,0,0,-23.74143063,"shiny_soft_gothicManor_None_[7, 0, 0]_[7, 0, 0]_CHARGE_1.961_1_5",soft,shiny,-1.0,shiny,soft,gothicManor,None,"[7, 0, 0]","[7, 0, 0]",CHARGE,1.961,1,0,1,1,-1,-1,-0.777101626,validationSet_v7_movies/126.mp4,,,,,4,0,80,0,validationSet_v7_movies/294.mp4,validationSet_v7_movies/340.mp4,shiny,294,340,-0.593384189,-0.007059391,-0.659866369,left,left,0.0013300999999046326,621781,001,2023-04-06_17h50.03.830,non_rigid_shiny_experiment_v3,2022.2.4,60.09752627013749,
182,0,0,-20.90701178,"shiny_soft_abandoned_None_[86, 0, 0]_[86, 0, 0]_WIND_1.99_2_7",soft,shiny,-0.895587453,shiny,soft,abandoned,None,"[86, 0, 0]","[86, 0, 0]",WIND,1.99,2,0,1,1,-1,-1,-0.684325772,validationSet_v7_movies/182.mp4,,,,,4,1,81,1,validationSet_v7_movies/110.mp4,validationSet_v7_movies/67.mp4,shiny,110,67,-0.582716876,0.137511452,-0.810565155,left,left,0.14507689999300055,621781,001,2023-04-06_17h50.03.830,non_rigid_shiny_experiment_v3,2022.2.4,60.09752627013749,
298,0,0,-19.53749142,"shiny_rigid_machineShop_None_[19, 0, 0]_[-46, -50, -54]_None_1.838_2_5",rigid,shiny,-0.845137919,shiny,rigid,machineShop,None,"[19, 0, 0]","[-46, -50, -54]",None,1.838,2,0,0,2,1,1,-0.639498798,validationSet_v7_movies/298.mp4,,,,,4,2,82,2,validationSet_v7_movies/280.mp4,validationSet_v7_movies/392.mp4,shiny,280,392,-0.570944753,-0.002595989,-0.6396356350000001,left,left,0.06237390000023879,621781,001,2023-04-06_17h50.03.830,non_rigid_shiny_experiment_v3,2022.2.4,60.09752627013749,
281,0,0,-18.99610056,"shiny_rigid_machineShop_None_[76, 0, 0]_[-53, 38, 48]_None_1.693_2_0",rigid,shiny,-0.825194501,shiny,rigid,machineShop,None,"[76, 0, 0]","[-53, 38, 48]",None,1.693,2,0,0,2,1,1,-0.621778058,validationSet_v7_movies/281.mp4,,,,,4,3,83,3,validationSet_v7_movies/298.mp4,validationSet_v7_movies/188.mp4,shiny,298,188,-0.639498798,0.113420068,-0.847356004,left,left,0.022298800002317876,621781,001,2023-04-06_17h50.03.830,non_rigid_shiny_experiment_v3,2022.2.4,60.09752627013749,
282,0,0,-18.18064232,"shiny_rigid_machineShop_None_[68, 0, 0]_[48, 43, -35]_None_1.08_0_14",rigid,shiny,-0.795155161,shiny,rigid,machineShop,None,"[68, 0, 0]","[48, 43, -35]",None,1.08,0,0,0,2,1,1,-0.595086578,validationSet_v7_movies/282.mp4,,,,,4,4,84,4,validationSet_v7_movies/126.mp4,validationSet_v7_movies/155.mp4,shiny,126,155,-0.777101626,0.053612941,-0.934909467,left,left,0.11592880001990125,621781,001,2023-04-06_17h50.03.830,non_rigid_shiny_experiment_v3,2022.2.4,60.09752627013749,
294,0,0,-18.1286322,"shiny_rigid_machineShop_None_[26, 0, 0]_[48, -42, -46]_None_1.876_2_15",rigid,shiny,-0.793239245,shiny,rigid,machineShop,None,"[26, 0, 0]","[48, -42, -46]",None,1.876,2,0,0,2,1,1,-0.593384189,validationSet_v7_movies/294.mp4,,,,,4,5,85,5,validationSet_v7_movies/281.mp4,validationSet_v7_movies/264.mp4,shiny,281,264,-0.621778058,0.03223399,-0.736043498,left,left,0.20921659999294207,621781,001,2023-04-06_17h50.03.830,non_rigid_shiny_experiment_v3,2022.2.4,60.09752627013749,
110,0,0,-17.80273237,"shiny_soft_lobby_None_[61, 0, 0]_[61, 0, 0]_FORCE_1.816_1_19",soft,shiny,-0.781233951,shiny,soft,lobby,None,"[61, 0, 0]","[61, 0, 0]",FORCE,1.816,1,0,1,1,-1,-1,-0.582716876,validationSet_v7_movies/110.mp4,,,,,4,6,86,6,validationSet_v7_movies/182.mp4,validationSet_v7_movies/276.mp4,shiny,182,276,-0.684325772,-0.009930609,-0.758983228,left,left,0.16271009997581132,621781,001,2023-04-06_17h50.03.830,non_rigid_shiny_experiment_v3,2022.2.4,60.09752627013749,
151,0,0,-17.78750367,"shiny_soft_galileo_None_[54, 0, 0]_[54, 0, 0]_MAGNET_1.292_0_7",soft,shiny,-0.780672966,shiny,soft,galileo,None,"[54, 0, 0]","[54, 0, 0]",MAGNET,1.292,0,0,1,1,-1,-1,-0.582218412,validationSet_v7_movies/151.mp4,,,,,4,7,87,7,validationSet_v7_movies/282.mp4,validationSet_v7_movies/235.mp4,shiny,282,235,-0.595086578,-0.019665532,-0.64759498,left,left,0.04308790000504814,621781,001,2023-04-06_17h50.03.830,non_rigid_shiny_experiment_v3,2022.2.4,60.09752627013749,
280,0,0,-17.44307924,"shiny_rigid_machineShop_None_[88, 0, 0]_[-54, -35, 29]_None_1.046_0_11",rigid,shiny,-0.767985274,shiny,rigid,machineShop,None,"[88, 0, 0]","[-54, -35, 29]",None,1.046,0,0,0,2,1,1,-0.570944753,validationSet_v7_movies/280.mp4,,,,,4,8,88,8,validationSet_v7_movies/117.mp4,validationSet_v7_movies/311.mp4,shiny,117,311,-0.562854078,-0.020533448,-0.6103428430000001,left,left,0.13453219999792054,621781,001,2023-04-06_17h50.03.830,non_rigid_shiny_experiment_v3,2022.2.4,60.09752627013749,
117,0,0,-17.19589897,"shiny_soft_lobby_None_[12, 0, 0]_[12, 0, 0]_WIND_1.567_1_13",soft,shiny,-0.758879802,shiny,soft,lobby,None,"[12, 0, 0]","[12, 0, 0]",WIND,1.567,1,0,1,1,-1,-1,-0.562854078,validationSet_v7_movies/117.mp4,,,,,4,9,89,9,validationSet_v7_movies/151.mp4,validationSet_v7_movies/366.mp4,shiny,151,366,-0.582218412,0.09018918,-0.756746358,right,left,0.21779250001418404,621781,001,2023-04-06_17h50.03.830,non_rigid_shiny_experiment_v3,2022.2.4,60.09752627013749,
311,0,0,-0.627322638,"shiny_rigid_lobby_None_[32, 0, 0]_[47, -44, 0]_None_1.844_2_15",rigid,shiny,-0.148536959,shiny,rigid,lobby,None,"[32, 0, 0]","[47, -44, 0]",None,1.844,2,0,0,2,1,1,-0.020533448,validationSet_v7_movies/311.mp4,,,,,4,10,90,10,validationSet_v7_movies/294.mp4,validationSet_v7_movies/366.mp4,shiny,294,366,-0.593384189,0.09018918,-0.769312637,right,right,0.228216399991652,621781,001,2023-04-06_17h50.03.830,non_rigid_shiny_experiment_v3,2022.2.4,60.09752627013749,
235,0,0,-0.60080669,"shiny_rigid_uenoShrine_None_[31, 0, 0]_[-44, 30, 36]_None_0.941_0_5",rigid,shiny,-0.147560181,shiny,rigid,uenoShrine,None,"[31, 0, 0]","[-44, 30, 36]",None,0.941,0,0,0,2,1,1,-0.019665532,validationSet_v7_movies/235.mp4,,,,,4,11,91,11,validationSet_v7_movies/110.mp4,validationSet_v7_movies/340.mp4,shiny,110,340,-0.582716876,-0.007059391,-0.647861075,right,right,0.018834999995306134,621781,001,2023-04-06_17h50.03.830,non_rigid_shiny_experiment_v3,2022.2.4,60.09752627013749,
276,0,0,-0.303392566,"shiny_rigid_rnl_None_[21, 0, 0]_[-46, 39, 0]_None_1.97_2_19",rigid,shiny,-0.136604225,shiny,rigid,rnl,None,"[21, 0, 0]","[-46, 39, 0]",None,1.97,2,0,0,2,1,1,-0.009930609,validationSet_v7_movies/276.mp4,,,,,4,12,92,12,validationSet_v7_movies/280.mp4,validationSet_v7_movies/67.mp4,shiny,280,67,-0.570944753,0.137511452,-0.797316478,left,left,0.5022313999943435,621781,001,2023-04-06_17h50.03.830,non_rigid_shiny_experiment_v3,2022.2.4,60.09752627013749,
340,0,0,-0.215673261,"shiny_rigid_galileo_None_[9, 0, 0]_[-52, -57, -37]_None_1.011_0_6",rigid,shiny,-0.133372876,shiny,rigid,galileo,None,"[9, 0, 0]","[-52, -57, -37]",None,1.011,0,0,0,2,1,1,-0.007059391,validationSet_v7_movies/340.mp4,,,,,4,13,93,13,validationSet_v7_movies/298.mp4,validationSet_v7_movies/392.mp4,shiny,298,392,-0.639498798,-0.002595989,-0.71678828,right,left,0.055391800007782876,621781,001,2023-04-06_17h50.03.830,non_rigid_shiny_experiment_v3,2022.2.4,60.09752627013749,
392,0,0,-0.079310728,"shiny_rigid_abandoned_None_[30, 0, 0]_[29, 35, 43]_None_1.516_2_9",rigid,shiny,-0.128349639,shiny,rigid,abandoned,None,"[30, 0, 0]","[29, 35, 43]",None,1.516,2,0,0,2,1,1,-0.002595989,validationSet_v7_movies/392.mp4,,,,,4,14,94,14,validationSet_v7_movies/126.mp4,validationSet_v7_movies/188.mp4,shiny,126,188,-0.777101626,0.113420068,-1.002218085,left,left,0.020457100006751716,621781,001,2023-04-06_17h50.03.830,non_rigid_shiny_experiment_v3,2022.2.4,60.09752627013749,
264,0,1,0.984788891,"shiny_rigid_rnl_None_[66, 0, 0]_[33, -42, 42]_None_1.956_1_2",rigid,shiny,-0.089151003,shiny,rigid,rnl,None,"[66, 0, 0]","[33, -42, 42]",None,1.956,1,0,0,2,1,1,0.03223399,validationSet_v7_movies/264.mp4,,,,,4,15,95,15,validationSet_v7_movies/281.mp4,validationSet_v7_movies/155.mp4,shiny,281,155,-0.621778058,0.053612941,-0.760103968,right,left,0.16226720000850037,621781,001,2023-04-06_17h50.03.830,non_rigid_shiny_experiment_v3,2022.2.4,60.09752627013749,
155,0,1,1.637942683,"shiny_soft_galileo_None_[24, 0, 0]_[24, 0, 0]_VORTEX_0.969_0_4",soft,shiny,-0.065090533,shiny,soft,galileo,None,"[24, 0, 0]","[24, 0, 0]",VORTEX,0.969,0,0,1,1,-1,-1,0.053612941,validationSet_v7_movies/155.mp4,,,,,4,16,96,16,validationSet_v7_movies/182.mp4,validationSet_v7_movies/264.mp4,shiny,182,264,-0.684325772,0.03223399,-0.80643645,left,left,0.08077570001478307,621781,001,2023-04-06_17h50.03.830,non_rigid_shiny_experiment_v3,2022.2.4,60.09752627013749,
366,0,1,2.755392713,"shiny_rigid_castel_None_[71, 0, 0]_[-32, -29, -43]_None_1.897_2_18",rigid,shiny,-0.023926608,shiny,rigid,castel,None,"[71, 0, 0]","[-32, -29, -43]",None,1.897,2,0,0,2,1,1,0.09018918,validationSet_v7_movies/366.mp4,,,,,4,17,97,17,validationSet_v7_movies/282.mp4,validationSet_v7_movies/276.mp4,shiny,282,276,-0.595086578,-0.009930609,-0.658550936,left,left,0.04148000001441687,621781,001,2023-04-06_17h50.03.830,non_rigid_shiny_experiment_v3,2022.2.4,60.09752627013749,
188,0,1,3.465125528,"shiny_soft_abandoned_None_[61, 0, 0]_[61, 0, 0]_FORCE_1.086_0_0",soft,shiny,0.002218085,shiny,soft,abandoned,None,"[61, 0, 0]","[61, 0, 0]",FORCE,1.086,0,0,1,1,-1,-1,0.113420068,validationSet_v7_movies/188.mp4,,,,,4,18,98,18,validationSet_v7_movies/117.mp4,validationSet_v7_movies/235.mp4,shiny,117,235,-0.562854078,-0.019665532,-0.611319621,left,right,0.08373890002258122,621781,001,2023-04-06_17h50.03.830,non_rigid_shiny_experiment_v3,2022.2.4,60.09752627013749,
67,0,1,4.201147548,"shiny_soft_rnl_None_[69, 0, 0]_[69, 0, 0]_TURBULENCE_1.408_1_6",soft,shiny,0.029331204,shiny,soft,rnl,None,"[69, 0, 0]","[69, 0, 0]",TURBULENCE,1.408,1,0,1,1,-1,-1,0.137511452,validationSet_v7_movies/67.mp4,,,,,4,19,99,19,validationSet_v7_movies/151.mp4,validationSet_v7_movies/311.mp4,shiny,151,311,-0.582218412,-0.020533448,-0.632136007,left,left,0.1320512999955099,621781,001,2023-04-06_17h50.03.830,non_rigid_shiny_experiment_v3,2022.2.4,60.09752627013749,
126,0,0,-23.74143063,"shiny_soft_gothicManor_None_[7, 0, 0]_[7, 0, 0]_CHARGE_1.961_1_5",soft,shiny,-1.0,shiny,soft,gothicManor,None,"[7, 0, 0]","[7, 0, 0]",CHARGE,1.961,1,0,1,1,-1,-1,-0.777101626,validationSet_v7_movies/126.mp4,,,,,5,0,100,0,validationSet_v7_movies/294.mp4,validationSet_v7_movies/311.mp4,shiny,294,311,-0.593384189,-0.020533448,-0.644702286,right,left,0.2597325000097044,621781,001,2023-04-06_17h50.03.830,non_rigid_shiny_experiment_v3,2022.2.4,60.09752627013749,
182,0,0,-20.90701178,"shiny_soft_abandoned_None_[86, 0, 0]_[86, 0, 0]_WIND_1.99_2_7",soft,shiny,-0.895587453,shiny,soft,abandoned,None,"[86, 0, 0]","[86, 0, 0]",WIND,1.99,2,0,1,1,-1,-1,-0.684325772,validationSet_v7_movies/182.mp4,,,,,5,1,101,1,validationSet_v7_movies/110.mp4,validationSet_v7_movies/366.mp4,shiny,110,366,-0.582716876,0.09018918,-0.757307343,left,left,0.013834000012138858,621781,001,2023-04-06_17h50.03.830,non_rigid_shiny_experiment_v3,2022.2.4,60.09752627013749,
298,0,0,-19.53749142,"shiny_rigid_machineShop_None_[19, 0, 0]_[-46, -50, -54]_None_1.838_2_5",rigid,shiny,-0.845137919,shiny,rigid,machineShop,None,"[19, 0, 0]","[-46, -50, -54]",None,1.838,2,0,0,2,1,1,-0.639498798,validationSet_v7_movies/298.mp4,,,,,5,2,102,2,validationSet_v7_movies/280.mp4,validationSet_v7_movies/340.mp4,shiny,280,340,-0.570944753,-0.007059391,-0.634612398,left,right,0.3004798000038136,621781,001,2023-04-06_17h50.03.830,non_rigid_shiny_experiment_v3,2022.2.4,60.09752627013749,
281,0,0,-18.99610056,"shiny_rigid_machineShop_None_[76, 0, 0]_[-53, 38, 48]_None_1.693_2_0",rigid,shiny,-0.825194501,shiny,rigid,machineShop,None,"[76, 0, 0]","[-53, 38, 48]",None,1.693,2,0,0,2,1,1,-0.621778058,validationSet_v7_movies/281.mp4,,,,,5,3,103,3,validationSet_v7_movies/298.mp4,validationSet_v7_movies/67.mp4,shiny,298,67,-0.639498798,0.137511452,-0.874469123,right,right,0.09763010000460781,621781,001,2023-04-06_17h50.03.830,non_rigid_shiny_experiment_v3,2022.2.4,60.09752627013749,
282,0,0,-18.18064232,"shiny_rigid_machineShop_None_[68, 0, 0]_[48, 43, -35]_None_1.08_0_14",rigid,shiny,-0.795155161,shiny,rigid,machineShop,None,"[68, 0, 0]","[48, 43, -35]",None,1.08,0,0,0,2,1,1,-0.595086578,validationSet_v7_movies/282.mp4,,,,,5,4,104,4,validationSet_v7_movies/126.mp4,validationSet_v7_movies/392.mp4,shiny,126,392,-0.777101626,-0.002595989,-0.871650361,left,left,0.18523150001419708,621781,001,2023-04-06_17h50.03.830,non_rigid_shiny_experiment_v3,2022.2.4,60.09752627013749,
294,0,0,-18.1286322,"shiny_rigid_machineShop_None_[26, 0, 0]_[48, -42, -46]_None_1.876_2_15",rigid,shiny,-0.793239245,shiny,rigid,machineShop,None,"[26, 0, 0]","[48, -42, -46]",None,1.876,2,0,0,2,1,1,-0.593384189,validationSet_v7_movies/294.mp4,,,,,5,5,105,5,validationSet_v7_movies/281.mp4,validationSet_v7_movies/188.mp4,shiny,281,188,-0.621778058,0.113420068,-0.827412586,right,left,0.4446600000082981,621781,001,2023-04-06_17h50.03.830,non_rigid_shiny_experiment_v3,2022.2.4,60.09752627013749,
110,0,0,-17.80273237,"shiny_soft_lobby_None_[61, 0, 0]_[61, 0, 0]_FORCE_1.816_1_19",soft,shiny,-0.781233951,shiny,soft,lobby,None,"[61, 0, 0]","[61, 0, 0]",FORCE,1.816,1,0,1,1,-1,-1,-0.582716876,validationSet_v7_movies/110.mp4,,,,,5,6,106,6,validationSet_v7_movies/182.mp4,validationSet_v7_movies/155.mp4,shiny,182,155,-0.684325772,0.053612941,-0.83049692,left,left,0.07527859997935593,621781,001,2023-04-06_17h50.03.830,non_rigid_shiny_experiment_v3,2022.2.4,60.09752627013749,
151,0,0,-17.78750367,"shiny_soft_galileo_None_[54, 0, 0]_[54, 0, 0]_MAGNET_1.292_0_7",soft,shiny,-0.780672966,shiny,soft,galileo,None,"[54, 0, 0]","[54, 0, 0]",MAGNET,1.292,0,0,1,1,-1,-1,-0.582218412,validationSet_v7_movies/151.mp4,,,,,5,7,107,7,validationSet_v7_movies/282.mp4,validationSet_v7_movies/264.mp4,shiny,282,264,-0.595086578,0.03223399,-0.706004158,left,right,0.33996089998981915,621781,001,2023-04-06_17h50.03.830,non_rigid_shiny_experiment_v3,2022.2.4,60.09752627013749,
280,0,0,-17.44307924,"shiny_rigid_machineShop_None_[88, 0, 0]_[-54, -35, 29]_None_1.046_0_11",rigid,shiny,-0.767985274,shiny,rigid,machineShop,None,"[88, 0, 0]","[-54, -35, 29]",None,1.046,0,0,0,2,1,1,-0.570944753,validationSet_v7_movies/280.mp4,,,,,5,8,108,8,validationSet_v7_movies/117.mp4,validationSet_v7_movies/276.mp4,shiny,117,276,-0.562854078,-0.009930609,-0.622275577,left,right,0.001644300005864352,621781,001,2023-04-06_17h50.03.830,non_rigid_shiny_experiment_v3,2022.2.4,60.09752627013749,
117,0,0,-17.19589897,"shiny_soft_lobby_None_[12, 0, 0]_[12, 0, 0]_WIND_1.567_1_13",soft,shiny,-0.758879802,shiny,soft,lobby,None,"[12, 0, 0]","[12, 0, 0]",WIND,1.567,1,0,1,1,-1,-1,-0.562854078,validationSet_v7_movies/117.mp4,,,,,5,9,109,9,validationSet_v7_movies/151.mp4,validationSet_v7_movies/235.mp4,shiny,151,235,-0.582218412,-0.019665532,-0.633112785,right,right,0.16690459998790175,621781,001,2023-04-06_17h50.03.830,non_rigid_shiny_experiment_v3,2022.2.4,60.09752627013749,
311,0,0,-0.627322638,"shiny_rigid_lobby_None_[32, 0, 0]_[47, -44, 0]_None_1.844_2_15",rigid,shiny,-0.148536959,shiny,rigid,lobby,None,"[32, 0, 0]","[47, -44, 0]",None,1.844,2,0,0,2,1,1,-0.020533448,validationSet_v7_movies/311.mp4,,,,,5,10,110,10,validationSet_v7_movies/294.mp4,validationSet_v7_movies/235.mp4,shiny,294,235,-0.593384189,-0.019665532,-0.645679064,left,right,0.15712439999333583,621781,001,2023-04-06_17h50.03.830,non_rigid_shiny_experiment_v3,2022.2.4,60.09752627013749,
235,0,0,-0.60080669,"shiny_rigid_uenoShrine_None_[31, 0, 0]_[-44, 30, 36]_None_0.941_0_5",rigid,shiny,-0.147560181,shiny,rigid,uenoShrine,None,"[31, 0, 0]","[-44, 30, 36]",None,0.941,0,0,0,2,1,1,-0.019665532,validationSet_v7_movies/235.mp4,,,,,5,11,111,11,validationSet_v7_movies/110.mp4,validationSet_v7_movies/311.mp4,shiny,110,311,-0.582716876,-0.020533448,-0.6326969920000001,left,right,0.15813759999582544,621781,001,2023-04-06_17h50.03.830,non_rigid_shiny_experiment_v3,2022.2.4,60.09752627013749,
276,0,0,-0.303392566,"shiny_rigid_rnl_None_[21, 0, 0]_[-46, 39, 0]_None_1.97_2_19",rigid,shiny,-0.136604225,shiny,rigid,rnl,None,"[21, 0, 0]","[-46, 39, 0]",None,1.97,2,0,0,2,1,1,-0.009930609,validationSet_v7_movies/276.mp4,,,,,5,12,112,12,validationSet_v7_movies/280.mp4,validationSet_v7_movies/366.mp4,shiny,280,366,-0.570944753,0.09018918,-0.744058666,left,right,0.17982689998461865,621781,001,2023-04-06_17h50.03.830,non_rigid_shiny_experiment_v3,2022.2.4,60.09752627013749,
340,0,0,-0.215673261,"shiny_rigid_galileo_None_[9, 0, 0]_[-52, -57, -37]_None_1.011_0_6",rigid,shiny,-0.133372876,shiny,rigid,galileo,None,"[9, 0, 0]","[-52, -57, -37]",None,1.011,0,0,0,2,1,1,-0.007059391,validationSet_v7_movies/340.mp4,,,,,5,13,113,13,validationSet_v7_movies/298.mp4,validationSet_v7_movies/340.mp4,shiny,298,340,-0.639498798,-0.007059391,-0.711765043,left,right,0.002037800004472956,621781,001,2023-04-06_17h50.03.830,non_rigid_shiny_experiment_v3,2022.2.4,60.09752627013749,
392,0,0,-0.079310728,"shiny_rigid_abandoned_None_[30, 0, 0]_[29, 35, 43]_None_1.516_2_9",rigid,shiny,-0.128349639,shiny,rigid,abandoned,None,"[30, 0, 0]","[29, 35, 43]",None,1.516,2,0,0,2,1,1,-0.002595989,validationSet_v7_movies/392.mp4,,,,,5,14,114,14,validationSet_v7_movies/126.mp4,validationSet_v7_movies/67.mp4,shiny,126,67,-0.777101626,0.137511452,-1.029331204,left,right,0.015549900010228157,621781,001,2023-04-06_17h50.03.830,non_rigid_shiny_experiment_v3,2022.2.4,60.09752627013749,
264,0,1,0.984788891,"shiny_rigid_rnl_None_[66, 0, 0]_[33, -42, 42]_None_1.956_1_2",rigid,shiny,-0.089151003,shiny,rigid,rnl,None,"[66, 0, 0]","[33, -42, 42]",None,1.956,1,0,0,2,1,1,0.03223399,validationSet_v7_movies/264.mp4,,,,,5,15,115,15,validationSet_v7_movies/281.mp4,validationSet_v7_movies/392.mp4,shiny,281,392,-0.621778058,-0.002595989,-0.6968448620000001,right,right,0.15554680000059307,621781,001,2023-04-06_17h50.03.830,non_rigid_shiny_experiment_v3,2022.2.4,60.09752627013749,
155,0,1,1.637942683,"shiny_soft_galileo_None_[24, 0, 0]_[24, 0, 0]_VORTEX_0.969_0_4",soft,shiny,-0.065090533,shiny,soft,galileo,None,"[24, 0, 0]","[24, 0, 0]",VORTEX,0.969,0,0,1,1,-1,-1,0.053612941,validationSet_v7_movies/155.mp4,,,,,5,16,116,16,validationSet_v7_movies/182.mp4,validationSet_v7_movies/188.mp4,shiny,182,188,-0.684325772,0.113420068,-0.897805538,right,right,0.5878881999815349,621781,001,2023-04-06_17h50.03.830,non_rigid_shiny_experiment_v3,2022.2.4,60.09752627013749,
366,0,1,2.755392713,"shiny_rigid_castel_None_[71, 0, 0]_[-32, -29, -43]_None_1.897_2_18",rigid,shiny,-0.023926608,shiny,rigid,castel,None,"[71, 0, 0]","[-32, -29, -43]",None,1.897,2,0,0,2,1,1,0.09018918,validationSet_v7_movies/366.mp4,,,,,5,17,117,17,validationSet_v7_movies/282.mp4,validationSet_v7_movies/155.mp4,shiny,282,155,-0.595086578,0.053612941,-0.730064628,right,right,0.08882060000905767,621781,001,2023-04-06_17h50.03.830,non_rigid_shiny_experiment_v3,2022.2.4,60.09752627013749,
188,0,1,3.465125528,"shiny_soft_abandoned_None_[61, 0, 0]_[61, 0, 0]_FORCE_1.086_0_0",soft,shiny,0.002218085,shiny,soft,abandoned,None,"[61, 0, 0]","[61, 0, 0]",FORCE,1.086,0,0,1,1,-1,-1,0.113420068,validationSet_v7_movies/188.mp4,,,,,5,18,118,18,validationSet_v7_movies/117.mp4,validationSet_v7_movies/264.mp4,shiny,117,264,-0.562854078,0.03223399,-0.669728799,left,right,0.10715240001445636,621781,001,2023-04-06_17h50.03.830,non_rigid_shiny_experiment_v3,2022.2.4,60.09752627013749,
67,0,1,4.201147548,"shiny_soft_rnl_None_[69, 0, 0]_[69, 0, 0]_TURBULENCE_1.408_1_6",soft,shiny,0.029331204,shiny,soft,rnl,None,"[69, 0, 0]","[69, 0, 0]",TURBULENCE,1.408,1,0,1,1,-1,-1,0.137511452,validationSet_v7_movies/67.mp4,,,,,5,19,119,19,validationSet_v7_movies/151.mp4,validationSet_v7_movies/276.mp4,shiny,151,276,-0.582218412,-0.009930609,-0.644068741,left,right,0.12158579999231733,621781,001,2023-04-06_17h50.03.830,non_rigid_shiny_experiment_v3,2022.2.4,60.09752627013749,
126,0,0,-23.74143063,"shiny_soft_gothicManor_None_[7, 0, 0]_[7, 0, 0]_CHARGE_1.961_1_5",soft,shiny,-1.0,shiny,soft,gothicManor,None,"[7, 0, 0]","[7, 0, 0]",CHARGE,1.961,1,0,1,1,-1,-1,-0.777101626,validationSet_v7_movies/126.mp4,,,,,6,0,120,0,validationSet_v7_movies/294.mp4,validationSet_v7_movies/276.mp4,shiny,294,276,-0.593384189,-0.009930609,-0.65663502,right,right,0.043991199985612184,621781,001,2023-04-06_17h50.03.830,non_rigid_shiny_experiment_v3,2022.2.4,60.09752627013749,
182,0,0,-20.90701178,"shiny_soft_abandoned_None_[86, 0, 0]_[86, 0, 0]_WIND_1.99_2_7",soft,shiny,-0.895587453,shiny,soft,abandoned,None,"[86, 0, 0]","[86, 0, 0]",WIND,1.99,2,0,1,1,-1,-1,-0.684325772,validationSet_v7_movies/182.mp4,,,,,6,1,121,1,validationSet_v7_movies/110.mp4,validationSet_v7_movies/235.mp4,shiny,110,235,-0.582716876,-0.019665532,-0.63367377,left,right,0.004445300000952557,621781,001,2023-04-06_17h50.03.830,non_rigid_shiny_experiment_v3,2022.2.4,60.09752627013749,
298,0,0,-19.53749142,"shiny_rigid_machineShop_None_[19, 0, 0]_[-46, -50, -54]_None_1.838_2_5",rigid,shiny,-0.845137919,shiny,rigid,machineShop,None,"[19, 0, 0]","[-46, -50, -54]",None,1.838,2,0,0,2,1,1,-0.639498798,validationSet_v7_movies/298.mp4,,,,,6,2,122,2,validationSet_v7_movies/280.mp4,validationSet_v7_movies/311.mp4,shiny,280,311,-0.570944753,-0.020533448,-0.6194483150000001,right,right,0.1668915000045672,621781,001,2023-04-06_17h50.03.830,non_rigid_shiny_experiment_v3,2022.2.4,60.09752627013749,
281,0,0,-18.99610056,"shiny_rigid_machineShop_None_[76, 0, 0]_[-53, 38, 48]_None_1.693_2_0",rigid,shiny,-0.825194501,shiny,rigid,machineShop,None,"[76, 0, 0]","[-53, 38, 48]",None,1.693,2,0,0,2,1,1,-0.621778058,validationSet_v7_movies/281.mp4,,,,,6,3,123,3,validationSet_v7_movies/298.mp4,validationSet_v7_movies/366.mp4,shiny,298,366,-0.639498798,0.09018918,-0.821211311,left,right,0.037606700003379956,621781,001,2023-04-06_17h50.03.830,non_rigid_shiny_experiment_v3,2022.2.4,60.09752627013749,
282,0,0,-18.18064232,"shiny_rigid_machineShop_None_[68, 0, 0]_[48, 43, -35]_None_1.08_0_14",rigid,shiny,-0.795155161,shiny,rigid,machineShop,None,"[68, 0, 0]","[48, 43, -35]",None,1.08,0,0,0,2,1,1,-0.595086578,validationSet_v7_movies/282.mp4,,,,,6,4,124,4,validationSet_v7_movies/126.mp4,validationSet_v7_movies/340.mp4,shiny,126,340,-0.777101626,-0.007059391,-0.866627124,right,right,0.13579380000010133,621781,001,2023-04-06_17h50.03.830,non_rigid_shiny_experiment_v3,2022.2.4,60.09752627013749,
294,0,0,-18.1286322,"shiny_rigid_machineShop_None_[26, 0, 0]_[48, -42, -46]_None_1.876_2_15",rigid,shiny,-0.793239245,shiny,rigid,machineShop,None,"[26, 0, 0]","[48, -42, -46]",None,1.876,2,0,0,2,1,1,-0.593384189,validationSet_v7_movies/294.mp4,,,,,6,5,125,5,validationSet_v7_movies/281.mp4,validationSet_v7_movies/67.mp4,shiny,281,67,-0.621778058,0.137511452,-0.854525705,right,right,0.14587870001560077,621781,001,2023-04-06_17h50.03.830,non_rigid_shiny_experiment_v3,2022.2.4,60.09752627013749,
110,0,0,-17.80273237,"shiny_soft_lobby_None_[61, 0, 0]_[61, 0, 0]_FORCE_1.816_1_19",soft,shiny,-0.781233951,shiny,soft,lobby,None,"[61, 0, 0]","[61, 0, 0]",FORCE,1.816,1,0,1,1,-1,-1,-0.582716876,validationSet_v7_movies/110.mp4,,,,,6,6,126,6,validationSet_v7_movies/182.mp4,validationSet_v7_movies/392.mp4,shiny,182,392,-0.684325772,-0.002595989,-0.767237814,left,right,0.15101150001282804,621781,001,2023-04-06_17h50.03.830,non_rigid_shiny_experiment_v3,2022.2.4,60.09752627013749,
151,0,0,-17.78750367,"shiny_soft_galileo_None_[54, 0, 0]_[54, 0, 0]_MAGNET_1.292_0_7",soft,shiny,-0.780672966,shiny,soft,galileo,None,"[54, 0, 0]","[54, 0, 0]",MAGNET,1.292,0,0,1,1,-1,-1,-0.582218412,validationSet_v7_movies/151.mp4,,,,,6,7,127,7,validationSet_v7_movies/282.mp4,validationSet_v7_movies/188.mp4,shiny,282,188,-0.595086578,0.113420068,-0.797373246,left,right,0.13296529999934137,621781,001,2023-04-06_17h50.03.830,non_rigid_shiny_experiment_v3,2022.2.4,60.09752627013749,
280,0,0,-17.44307924,"shiny_rigid_machineShop_None_[88, 0, 0]_[-54, -35, 29]_None_1.046_0_11",rigid,shiny,-0.767985274,shiny,rigid,machineShop,None,"[88, 0, 0]","[-54, -35, 29]",None,1.046,0,0,0,2,1,1,-0.570944753,validationSet_v7_movies/280.mp4,,,,,6,8,128,8,validationSet_v7_movies/117.mp4,validationSet_v7_movies/155.mp4,shiny,117,155,-0.562854078,0.053612941,-0.693789269,right,right,0.11759810001240112,621781,001,2023-04-06_17h50.03.830,non_rigid_shiny_experiment_v3,2022.2.4,60.09752627013749,
117,0,0,-17.19589897,"shiny_soft_lobby_None_[12, 0, 0]_[12, 0, 0]_WIND_1.567_1_13",soft,shiny,-0.758879802,shiny,soft,lobby,None,"[12, 0, 0]","[12, 0, 0]",WIND,1.567,1,0,1,1,-1,-1,-0.562854078,validationSet_v7_movies/117.mp4,,,,,6,9,129,9,validationSet_v7_movies/151.mp4,validationSet_v7_movies/264.mp4,shiny,151,264,-0.582218412,0.03223399,-0.691521963,left,right,0.0038252999947872013,621781,001,2023-04-06_17h50.03.830,non_rigid_shiny_experiment_v3,2022.2.4,60.09752627013749,
311,0,0,-0.627322638,"shiny_rigid_lobby_None_[32, 0, 0]_[47, -44, 0]_None_1.844_2_15",rigid,shiny,-0.148536959,shiny,rigid,lobby,None,"[32, 0, 0]","[47, -44, 0]",None,1.844,2,0,0,2,1,1,-0.020533448,validationSet_v7_movies/311.mp4,,,,,6,10,130,10,validationSet_v7_movies/294.mp4,validationSet_v7_movies/264.mp4,shiny,294,264,-0.593384189,0.03223399,-0.704088242,right,right,0.10513429998536594,621781,001,2023-04-06_17h50.03.830,non_rigid_shiny_experiment_v3,2022.2.4,60.09752627013749,
235,0,0,-0.60080669,"shiny_rigid_uenoShrine_None_[31, 0, 0]_[-44, 30, 36]_None_0.941_0_5",rigid,shiny,-0.147560181,shiny,rigid,uenoShrine,None,"[31, 0, 0]","[-44, 30, 36]",None,0.941,0,0,0,2,1,1,-0.019665532,validationSet_v7_movies/235.mp4,,,,,6,11,131,11,validationSet_v7_movies/110.mp4,validationSet_v7_movies/276.mp4,shiny,110,276,-0.582716876,-0.009930609,-0.644629726,right,right,0.16217929997947067,621781,001,2023-04-06_17h50.03.830,non_rigid_shiny_experiment_v3,2022.2.4,60.09752627013749,
276,0,0,-0.303392566,"shiny_rigid_rnl_None_[21, 0, 0]_[-46, 39, 0]_None_1.97_2_19",rigid,shiny,-0.136604225,shiny,rigid,rnl,None,"[21, 0, 0]","[-46, 39, 0]",None,1.97,2,0,0,2,1,1,-0.009930609,validationSet_v7_movies/276.mp4,,,,,6,12,132,12,validationSet_v7_movies/280.mp4,validationSet_v7_movies/235.mp4,shiny,280,235,-0.570944753,-0.019665532,-0.620425093,right,right,0.1792651999858208,621781,001,2023-04-06_17h50.03.830,non_rigid_shiny_experiment_v3,2022.2.4,60.09752627013749,
340,0,0,-0.215673261,"shiny_rigid_galileo_None_[9, 0, 0]_[-52, -57, -37]_None_1.011_0_6",rigid,shiny,-0.133372876,shiny,rigid,galileo,None,"[9, 0, 0]","[-52, -57, -37]",None,1.011,0,0,0,2,1,1,-0.007059391,validationSet_v7_movies/340.mp4,,,,,6,13,133,13,validationSet_v7_movies/298.mp4,validationSet_v7_movies/311.mp4,shiny,298,311,-0.639498798,-0.020533448,-0.69660096,left,right,0.03167039999971166,621781,001,2023-04-06_17h50.03.830,non_rigid_shiny_experiment_v3,2022.2.4,60.09752627013749,
392,0,0,-0.079310728,"shiny_rigid_abandoned_None_[30, 0, 0]_[29, 35, 43]_None_1.516_2_9",rigid,shiny,-0.128349639,shiny,rigid,abandoned,None,"[30, 0, 0]","[29, 35, 43]",None,1.516,2,0,0,2,1,1,-0.002595989,validationSet_v7_movies/392.mp4,,,,,6,14,134,14,validationSet_v7_movies/126.mp4,validationSet_v7_movies/366.mp4,shiny,126,366,-0.777101626,0.09018918,-0.976073392,right,right,0.21896200001356192,621781,001,2023-04-06_17h50.03.830,non_rigid_shiny_experiment_v3,2022.2.4,60.09752627013749,
264,0,1,0.984788891,"shiny_rigid_rnl_None_[66, 0, 0]_[33, -42, 42]_None_1.956_1_2",rigid,shiny,-0.089151003,shiny,rigid,rnl,None,"[66, 0, 0]","[33, -42, 42]",None,1.956,1,0,0,2,1,1,0.03223399,validationSet_v7_movies/264.mp4,,,,,6,15,135,15,validationSet_v7_movies/281.mp4,validationSet_v7_movies/340.mp4,shiny,281,340,-0.621778058,-0.007059391,-0.691821625,left,right,0.18949140000040643,621781,001,2023-04-06_17h50.03.830,non_rigid_shiny_experiment_v3,2022.2.4,60.09752627013749,
155,0,1,1.637942683,"shiny_soft_galileo_None_[24, 0, 0]_[24, 0, 0]_VORTEX_0.969_0_4",soft,shiny,-0.065090533,shiny,soft,galileo,None,"[24, 0, 0]","[24, 0, 0]",VORTEX,0.969,0,0,1,1,-1,-1,0.053612941,validationSet_v7_movies/155.mp4,,,,,6,16,136,16,validationSet_v7_movies/182.mp4,validationSet_v7_movies/67.mp4,shiny,182,67,-0.684325772,0.137511452,-0.924918657,right,right,0.1450112999882549,621781,001,2023-04-06_17h50.03.830,non_rigid_shiny_experiment_v3,2022.2.4,60.09752627013749,
366,0,1,2.755392713,"shiny_rigid_castel_None_[71, 0, 0]_[-32, -29, -43]_None_1.897_2_18",rigid,shiny,-0.023926608,shiny,rigid,castel,None,"[71, 0, 0]","[-32, -29, -43]",None,1.897,2,0,0,2,1,1,0.09018918,validationSet_v7_movies/366.mp4,,,,,6,17,137,17,validationSet_v7_movies/282.mp4,validationSet_v7_movies/392.mp4,shiny,282,392,-0.595086578,-0.002595989,-0.6668055220000001,right,right,0.02739790000487119,621781,001,2023-04-06_17h50.03.830,non_rigid_shiny_experiment_v3,2022.2.4,60.09752627013749,
188,0,1,3.465125528,"shiny_soft_abandoned_None_[61, 0, 0]_[61, 0, 0]_FORCE_1.086_0_0",soft,shiny,0.002218085,shiny,soft,abandoned,None,"[61, 0, 0]","[61, 0, 0]",FORCE,1.086,0,0,1,1,-1,-1,0.113420068,validationSet_v7_movies/188.mp4,,,,,6,18,138,18,validationSet_v7_movies/117.mp4,validationSet_v7_movies/188.mp4,shiny,117,188,-0.562854078,0.113420068,-0.761097887,right,right,0.18997040000976995,621781,001,2023-04-06_17h50.03.830,non_rigid_shiny_experiment_v3,2022.2.4,60.09752627013749,
67,0,1,4.201147548,"shiny_soft_rnl_None_[69, 0, 0]_[69, 0, 0]_TURBULENCE_1.408_1_6",soft,shiny,0.029331204,shiny,soft,rnl,None,"[69, 0, 0]","[69, 0, 0]",TURBULENCE,1.408,1,0,1,1,-1,-1,0.137511452,validationSet_v7_movies/67.mp4,,,,,6,19,139,19,validationSet_v7_movies/151.mp4,validationSet_v7_movies/155.mp4,shiny,151,155,-0.582218412,0.053612941,-0.715582433,left,right,0.19101179999415763,621781,001,2023-04-06_17h50.03.830,non_rigid_shiny_experiment_v3,2022.2.4,60.09752627013749,
126,0,0,-23.74143063,"shiny_soft_gothicManor_None_[7, 0, 0]_[7, 0, 0]_CHARGE_1.961_1_5",soft,shiny,-1.0,shiny,soft,gothicManor,None,"[7, 0, 0]","[7, 0, 0]",CHARGE,1.961,1,0,1,1,-1,-1,-0.777101626,validationSet_v7_movies/126.mp4,,,,,7,0,140,0,validationSet_v7_movies/294.mp4,validationSet_v7_movies/155.mp4,shiny,294,155,-0.593384189,0.053612941,-0.728148712,left,right,0.12982060000649653,621781,001,2023-04-06_17h50.03.830,non_rigid_shiny_experiment_v3,2022.2.4,60.09752627013749,
182,0,0,-20.90701178,"shiny_soft_abandoned_None_[86, 0, 0]_[86, 0, 0]_WIND_1.99_2_7",soft,shiny,-0.895587453,shiny,soft,abandoned,None,"[86, 0, 0]","[86, 0, 0]",WIND,1.99,2,0,1,1,-1,-1,-0.684325772,validationSet_v7_movies/182.mp4,,,,,7,1,141,1,validationSet_v7_movies/110.mp4,validationSet_v7_movies/264.mp4,shiny,110,264,-0.582716876,0.03223399,-0.692082948,left,right,0.08691479999106377,621781,001,2023-04-06_17h50.03.830,non_rigid_shiny_experiment_v3,2022.2.4,60.09752627013749,
298,0,0,-19.53749142,"shiny_rigid_machineShop_None_[19, 0, 0]_[-46, -50, -54]_None_1.838_2_5",rigid,shiny,-0.845137919,shiny,rigid,machineShop,None,"[19, 0, 0]","[-46, -50, -54]",None,1.838,2,0,0,2,1,1,-0.639498798,validationSet_v7_movies/298.mp4,,,,,7,2,142,2,validationSet_v7_movies/280.mp4,validationSet_v7_movies/276.mp4,shiny,280,276,-0.570944753,-0.009930609,-0.631381049,left,right,0.11602670000866055,621781,001,2023-04-06_17h50.03.830,non_rigid_shiny_experiment_v3,2022.2.4,60.09752627013749,
281,0,0,-18.99610056,"shiny_rigid_machineShop_None_[76, 0, 0]_[-53, 38, 48]_None_1.693_2_0",rigid,shiny,-0.825194501,shiny,rigid,machineShop,None,"[76, 0, 0]","[-53, 38, 48]",None,1.693,2,0,0,2,1,1,-0.621778058,validationSet_v7_movies/281.mp4,,,,,7,3,143,3,validationSet_v7_movies/298.mp4,validationSet_v7_movies/235.mp4,shiny,298,235,-0.639498798,-0.019665532,-0.697577738,left,right,0.0013464000076055527,621781,001,2023-04-06_17h50.03.830,non_rigid_shiny_experiment_v3,2022.2.4,60.09752627013749,
282,0,0,-18.18064232,"shiny_rigid_machineShop_None_[68, 0, 0]_[48, 43, -35]_None_1.08_0_14",rigid,shiny,-0.795155161,shiny,rigid,machineShop,None,"[68, 0, 0]","[48, 43, -35]",None,1.08,0,0,0,2,1,1,-0.595086578,validationSet_v7_movies/282.mp4,,,,,7,4,144,4,validationSet_v7_movies/126.mp4,validationSet_v7_movies/311.mp4,shiny,126,311,-0.777101626,-0.020533448,-0.851463041,left,right,0.21738180000102147,621781,001,2023-04-06_17h50.03.830,non_rigid_shiny_experiment_v3,2022.2.4,60.09752627013749,
294,0,0,-18.1286322,"shiny_rigid_machineShop_None_[26, 0, 0]_[48, -42, -46]_None_1.876_2_15",rigid,shiny,-0.793239245,shiny,rigid,machineShop,None,"[26, 0, 0]","[48, -42, -46]",None,1.876,2,0,0,2,1,1,-0.593384189,validationSet_v7_movies/294.mp4,,,,,7,5,145,5,validationSet_v7_movies/281.mp4,validationSet_v7_movies/366.mp4,shiny,281,366,-0.621778058,0.09018918,-0.801267893,left,right,0.18179140001302585,621781,001,2023-04-06_17h50.03.830,non_rigid_shiny_experiment_v3,2022.2.4,60.09752627013749,
110,0,0,-17.80273237,"shiny_soft_lobby_None_[61, 0, 0]_[61, 0, 0]_FORCE_1.816_1_19",soft,shiny,-0.781233951,shiny,soft,lobby,None,"[61, 0, 0]","[61, 0, 0]",FORCE,1.816,1,0,1,1,-1,-1,-0.582716876,validationSet_v7_movies/110.mp4,,,,,7,6,146,6,validationSet_v7_movies/182.mp4,validationSet_v7_movies/340.mp4,shiny,182,340,-0.684325772,-0.007059391,-0.762214577,right,right,0.1035725999972783,621781,001,2023-04-06_17h50.03.830,non_rigid_shiny_experiment_v3,2022.2.4,60.09752627013749,
151,0,0,-17.78750367,"shiny_soft_galileo_None_[54, 0, 0]_[54, 0, 0]_MAGNET_1.292_0_7",soft,shiny,-0.780672966,shiny,soft,galileo,None,"[54, 0, 0]","[54, 0, 0]",MAGNET,1.292,0,0,1,1,-1,-1,-0.582218412,validationSet_v7_movies/151.mp4,,,,,7,7,147,7,validationSet_v7_movies/282.mp4,validationSet_v7_movies/67.mp4,shiny,282,67,-0.595086578,0.137511452,-0.824486365,right,right,0.058307900006184354,621781,001,2023-04-06_17h50.03.830,non_rigid_shiny_experiment_v3,2022.2.4,60.09752627013749,
280,0,0,-17.44307924,"shiny_rigid_machineShop_None_[88, 0, 0]_[-54, -35, 29]_None_1.046_0_11",rigid,shiny,-0.767985274,shiny,rigid,machineShop,None,"[88, 0, 0]","[-54, -35, 29]",None,1.046,0,0,0,2,1,1,-0.570944753,validationSet_v7_movies/280.mp4,,,,,7,8,148,8,validationSet_v7_movies/117.mp4,validationSet_v7_movies/392.mp4,shiny,117,392,-0.562854078,-0.002595989,-0.6305301630000001,left,right,0.026038500014692545,621781,001,2023-04-06_17h50.03.830,non_rigid_shiny_experiment_v3,2022.2.4,60.09752627013749,
117,0,0,-17.19589897,"shiny_soft_lobby_None_[12, 0, 0]_[12, 0, 0]_WIND_1.567_1_13",soft,shiny,-0.758879802,shiny,soft,lobby,None,"[12, 0, 0]","[12, 0, 0]",WIND,1.567,1,0,1,1,-1,-1,-0.562854078,validationSet_v7_movies/117.mp4,,,,,7,9,149,9,validationSet_v7_movies/151.mp4,validationSet_v7_movies/188.mp4,shiny,151,188,-0.582218412,0.113420068,-0.782891051,right,right,0.022757099999580532,621781,001,2023-04-06_17h50.03.830,non_rigid_shiny_experiment_v3,2022.2.4,60.09752627013749,
311,0,0,-0.627322638,"shiny_rigid_lobby_None_[32, 0, 0]_[47, -44, 0]_None_1.844_2_15",rigid,shiny,-0.148536959,shiny,rigid,lobby,None,"[32, 0, 0]","[47, -44, 0]",None,1.844,2,0,0,2,1,1,-0.020533448,validationSet_v7_movies/311.mp4,,,,,7,10,150,10,validationSet_v7_movies/294.mp4,validationSet_v7_movies/188.mp4,shiny,294,188,-0.593384189,0.113420068,-0.79545733,right,right,0.257684700016398,621781,001,2023-04-06_17h50.03.830,non_rigid_shiny_experiment_v3,2022.2.4,60.09752627013749,
235,0,0,-0.60080669,"shiny_rigid_uenoShrine_None_[31, 0, 0]_[-44, 30, 36]_None_0.941_0_5",rigid,shiny,-0.147560181,shiny,rigid,uenoShrine,None,"[31, 0, 0]","[-44, 30, 36]",None,0.941,0,0,0,2,1,1,-0.019665532,validationSet_v7_movies/235.mp4,,,,,7,11,151,11,validationSet_v7_movies/110.mp4,validationSet_v7_movies/155.mp4,shiny,110,155,-0.582716876,0.053612941,-0.716143418,left,right,0.20430439998744987,621781,001,2023-04-06_17h50.03.830,non_rigid_shiny_experiment_v3,2022.2.4,60.09752627013749,
276,0,0,-0.303392566,"shiny_rigid_rnl_None_[21, 0, 0]_[-46, 39, 0]_None_1.97_2_19",rigid,shiny,-0.136604225,shiny,rigid,rnl,None,"[21, 0, 0]","[-46, 39, 0]",None,1.97,2,0,0,2,1,1,-0.009930609,validationSet_v7_movies/276.mp4,,,,,7,12,152,12,validationSet_v7_movies/280.mp4,validationSet_v7_movies/264.mp4,shiny,280,264,-0.570944753,0.03223399,-0.678834271,right,left,0.21550350001780316,621781,001,2023-04-06_17h50.03.830,non_rigid_shiny_experiment_v3,2022.2.4,60.09752627013749,
340,0,0,-0.215673261,"shiny_rigid_galileo_None_[9, 0, 0]_[-52, -57, -37]_None_1.011_0_6",rigid,shiny,-0.133372876,shiny,rigid,galileo,None,"[9, 0, 0]","[-52, -57, -37]",None,1.011,0,0,0,2,1,1,-0.007059391,validationSet_v7_movies/340.mp4,,,,,7,13,153,13,validationSet_v7_movies/298.mp4,validationSet_v7_movies/276.mp4,shiny,298,276,-0.639498798,-0.009930609,-0.708533694,right,left,0.02892689997679554,621781,001,2023-04-06_17h50.03.830,non_rigid_shiny_experiment_v3,2022.2.4,60.09752627013749,
392,0,0,-0.079310728,"shiny_rigid_abandoned_None_[30, 0, 0]_[29, 35, 43]_None_1.516_2_9",rigid,shiny,-0.128349639,shiny,rigid,abandoned,None,"[30, 0, 0]","[29, 35, 43]",None,1.516,2,0,0,2,1,1,-0.002595989,validationSet_v7_movies/392.mp4,,,,,7,14,154,14,validationSet_v7_movies/126.mp4,validationSet_v7_movies/235.mp4,shiny,126,235,-0.777101626,-0.019665532,-0.852439819,left,left,0.08347630000207573,621781,001,2023-04-06_17h50.03.830,non_rigid_shiny_experiment_v3,2022.2.4,60.09752627013749,
264,0,1,0.984788891,"shiny_rigid_rnl_None_[66, 0, 0]_[33, -42, 42]_None_1.956_1_2",rigid,shiny,-0.089151003,shiny,rigid,rnl,None,"[66, 0, 0]","[33, -42, 42]",None,1.956,1,0,0,2,1,1,0.03223399,validationSet_v7_movies/264.mp4,,,,,7,15,155,15,validationSet_v7_movies/281.mp4,validationSet_v7_movies/311.mp4,shiny,281,311,-0.621778058,-0.020533448,-0.6766575420000001,right,left,0.031028100027469918,621781,001,2023-04-06_17h50.03.830,non_rigid_shiny_experiment_v3,2022.2.4,60.09752627013749,
155,0,1,1.637942683,"shiny_soft_galileo_None_[24, 0, 0]_[24, 0, 0]_VORTEX_0.969_0_4",soft,shiny,-0.065090533,shiny,soft,galileo,None,"[24, 0, 0]","[24, 0, 0]",VORTEX,0.969,0,0,1,1,-1,-1,0.053612941,validationSet_v7_movies/155.mp4,,,,,7,16,156,16,validationSet_v7_movies/182.mp4,validationSet_v7_movies/366.mp4,shiny,182,366,-0.684325772,0.09018918,-0.871660845,left,left,0.019788000005064532,621781,001,2023-04-06_17h50.03.830,non_rigid_shiny_experiment_v3,2022.2.4,60.09752627013749,
366,0,1,2.755392713,"shiny_rigid_castel_None_[71, 0, 0]_[-32, -29, -43]_None_1.897_2_18",rigid,shiny,-0.023926608,shiny,rigid,castel,None,"[71, 0, 0]","[-32, -29, -43]",None,1.897,2,0,0,2,1,1,0.09018918,validationSet_v7_movies/366.mp4,,,,,7,17,157,17,validationSet_v7_movies/282.mp4,validationSet_v7_movies/340.mp4,shiny,282,340,-0.595086578,-0.007059391,-0.661782285,left,right,0.019063500018091872,621781,001,2023-04-06_17h50.03.830,non_rigid_shiny_experiment_v3,2022.2.4,60.09752627013749,
188,0,1,3.465125528,"shiny_soft_abandoned_None_[61, 0, 0]_[61, 0, 0]_FORCE_1.086_0_0",soft,shiny,0.002218085,shiny,soft,abandoned,None,"[61, 0, 0]","[61, 0, 0]",FORCE,1.086,0,0,1,1,-1,-1,0.113420068,validationSet_v7_movies/188.mp4,,,,,7,18,158,18,validationSet_v7_movies/117.mp4,validationSet_v7_movies/67.mp4,shiny,117,67,-0.562854078,0.137511452,-0.788211006,left,right,0.04640809999546036,621781,001,2023-04-06_17h50.03.830,non_rigid_shiny_experiment_v3,2022.2.4,60.09752627013749,
67,0,1,4.201147548,"shiny_soft_rnl_None_[69, 0, 0]_[69, 0, 0]_TURBULENCE_1.408_1_6",soft,shiny,0.029331204,shiny,soft,rnl,None,"[69, 0, 0]","[69, 0, 0]",TURBULENCE,1.408,1,0,1,1,-1,-1,0.137511452,validationSet_v7_movies/67.mp4,,,,,7,19,159,19,validationSet_v7_movies/151.mp4,validationSet_v7_movies/392.mp4,shiny,151,392,-0.582218412,-0.002595989,-0.6523233270000001,left,right,0.11477559999912046,621781,001,2023-04-06_17h50.03.830,non_rigid_shiny_experiment_v3,2022.2.4,60.09752627013749,
126,0,0,-23.74143063,"shiny_soft_gothicManor_None_[7, 0, 0]_[7, 0, 0]_CHARGE_1.961_1_5",soft,shiny,-1.0,shiny,soft,gothicManor,None,"[7, 0, 0]","[7, 0, 0]",CHARGE,1.961,1,0,1,1,-1,-1,-0.777101626,validationSet_v7_movies/126.mp4,,,,,8,0,160,0,validationSet_v7_movies/294.mp4,validationSet_v7_movies/392.mp4,shiny,294,392,-0.593384189,-0.002595989,-0.664889606,right,left,0.035408099996857345,621781,001,2023-04-06_17h50.03.830,non_rigid_shiny_experiment_v3,2022.2.4,60.09752627013749,
182,0,0,-20.90701178,"shiny_soft_abandoned_None_[86, 0, 0]_[86, 0, 0]_WIND_1.99_2_7",soft,shiny,-0.895587453,shiny,soft,abandoned,None,"[86, 0, 0]","[86, 0, 0]",WIND,1.99,2,0,1,1,-1,-1,-0.684325772,validationSet_v7_movies/182.mp4,,,,,8,1,161,1,validationSet_v7_movies/110.mp4,validationSet_v7_movies/188.mp4,shiny,110,188,-0.582716876,0.113420068,-0.783452036,right,right,0.0829368999984581,621781,001,2023-04-06_17h50.03.830,non_rigid_shiny_experiment_v3,2022.2.4,60.09752627013749,
298,0,0,-19.53749142,"shiny_rigid_machineShop_None_[19, 0, 0]_[-46, -50, -54]_None_1.838_2_5",rigid,shiny,-0.845137919,shiny,rigid,machineShop,None,"[19, 0, 0]","[-46, -50, -54]",None,1.838,2,0,0,2,1,1,-0.639498798,validationSet_v7_movies/298.mp4,,,,,8,2,162,2,validationSet_v7_movies/280.mp4,validationSet_v7_movies/155.mp4,shiny,280,155,-0.570944753,0.053612941,-0.702894741,right,left,0.10572520000278018,621781,001,2023-04-06_17h50.03.830,non_rigid_shiny_experiment_v3,2022.2.4,60.09752627013749,
281,0,0,-18.99610056,"shiny_rigid_machineShop_None_[76, 0, 0]_[-53, 38, 48]_None_1.693_2_0",rigid,shiny,-0.825194501,shiny,rigid,machineShop,None,"[76, 0, 0]","[-53, 38, 48]",None,1.693,2,0,0,2,1,1,-0.621778058,validationSet_v7_movies/281.mp4,,,,,8,3,163,3,validationSet_v7_movies/298.mp4,validationSet_v7_movies/264.mp4,shiny,298,264,-0.639498798,0.03223399,-0.755986916,right,left,0.03601330000674352,621781,001,2023-04-06_17h50.03.830,non_rigid_shiny_experiment_v3,2022.2.4,60.09752627013749,
282,0,0,-18.18064232,"shiny_rigid_machineShop_None_[68, 0, 0]_[48, 43, -35]_None_1.08_0_14",rigid,shiny,-0.795155161,shiny,rigid,machineShop,None,"[68, 0, 0]","[48, 43, -35]",None,1.08,0,0,0,2,1,1,-0.595086578,validationSet_v7_movies/282.mp4,,,,,8,4,164,4,validationSet_v7_movies/126.mp4,validationSet_v7_movies/276.mp4,shiny,126,276,-0.777101626,-0.009930609,-0.863395775,left,left,0.3283971000055317,621781,001,2023-04-06_17h50.03.830,non_rigid_shiny_experiment_v3,2022.2.4,60.09752627013749,
294,0,0,-18.1286322,"shiny_rigid_machineShop_None_[26, 0, 0]_[48, -42, -46]_None_1.876_2_15",rigid,shiny,-0.793239245,shiny,rigid,machineShop,None,"[26, 0, 0]","[48, -42, -46]",None,1.876,2,0,0,2,1,1,-0.593384189,validationSet_v7_movies/294.mp4,,,,,8,5,165,5,validationSet_v7_movies/281.mp4,validationSet_v7_movies/235.mp4,shiny,281,235,-0.621778058,-0.019665532,-0.67763432,left,left,0.03641309999511577,621781,001,2023-04-06_17h50.03.830,non_rigid_shiny_experiment_v3,2022.2.4,60.09752627013749,
110,0,0,-17.80273237,"shiny_soft_lobby_None_[61, 0, 0]_[61, 0, 0]_FORCE_1.816_1_19",soft,shiny,-0.781233951,shiny,soft,lobby,None,"[61, 0, 0]","[61, 0, 0]",FORCE,1.816,1,0,1,1,-1,-1,-0.582716876,validationSet_v7_movies/110.mp4,,,,,8,6,166,6,validationSet_v7_movies/182.mp4,validationSet_v7_movies/311.mp4,shiny,182,311,-0.684325772,-0.020533448,-0.747050494,left,left,1.8778563999803737,621781,001,2023-04-06_17h50.03.830,non_rigid_shiny_experiment_v3,2022.2.4,60.09752627013749,
151,0,0,-17.78750367,"shiny_soft_galileo_None_[54, 0, 0]_[54, 0, 0]_MAGNET_1.292_0_7",soft,shiny,-0.780672966,shiny,soft,galileo,None,"[54, 0, 0]","[54, 0, 0]",MAGNET,1.292,0,0,1,1,-1,-1,-0.582218412,validationSet_v7_movies/151.mp4,,,,,8,7,167,7,validationSet_v7_movies/282.mp4,validationSet_v7_movies/366.mp4,shiny,282,366,-0.595086578,0.09018918,-0.771228553,left,left,0.1311668999842368,621781,001,2023-04-06_17h50.03.830,non_rigid_shiny_experiment_v3,2022.2.4,60.09752627013749,
280,0,0,-17.44307924,"shiny_rigid_machineShop_None_[88, 0, 0]_[-54, -35, 29]_None_1.046_0_11",rigid,shiny,-0.767985274,shiny,rigid,machineShop,None,"[88, 0, 0]","[-54, -35, 29]",None,1.046,0,0,0,2,1,1,-0.570944753,validationSet_v7_movies/280.mp4,,,,,8,8,168,8,validationSet_v7_movies/117.mp4,validationSet_v7_movies/340.mp4,shiny,117,340,-0.562854078,-0.007059391,-0.625506926,left,left,0.05697390000568703,621781,001,2023-04-06_17h50.03.830,non_rigid_shiny_experiment_v3,2022.2.4,60.09752627013749,
117,0,0,-17.19589897,"shiny_soft_lobby_None_[12, 0, 0]_[12, 0, 0]_WIND_1.567_1_13",soft,shiny,-0.758879802,shiny,soft,lobby,None,"[12, 0, 0]","[12, 0, 0]",WIND,1.567,1,0,1,1,-1,-1,-0.562854078,validationSet_v7_movies/117.mp4,,,,,8,9,169,9,validationSet_v7_movies/151.mp4,validationSet_v7_movies/67.mp4,shiny,151,67,-0.582218412,0.137511452,-0.81000417,left,left,0.13183800000115298,621781,001,2023-04-06_17h50.03.830,non_rigid_shiny_experiment_v3,2022.2.4,60.09752627013749,
311,0,0,-0.627322638,"shiny_rigid_lobby_None_[32, 0, 0]_[47, -44, 0]_None_1.844_2_15",rigid,shiny,-0.148536959,shiny,rigid,lobby,None,"[32, 0, 0]","[47, -44, 0]",None,1.844,2,0,0,2,1,1,-0.020533448,validationSet_v7_movies/311.mp4,,,,,8,10,170,10,validationSet_v7_movies/294.mp4,validationSet_v7_movies/67.mp4,shiny,294,67,-0.593384189,0.137511452,-0.822570449,right,left,0.8057631000119727,621781,001,2023-04-06_17h50.03.830,non_rigid_shiny_experiment_v3,2022.2.4,60.09752627013749,
235,0,0,-0.60080669,"shiny_rigid_uenoShrine_None_[31, 0, 0]_[-44, 30, 36]_None_0.941_0_5",rigid,shiny,-0.147560181,shiny,rigid,uenoShrine,None,"[31, 0, 0]","[-44, 30, 36]",None,0.941,0,0,0,2,1,1,-0.019665532,validationSet_v7_movies/235.mp4,,,,,8,11,171,11,validationSet_v7_movies/110.mp4,validationSet_v7_movies/392.mp4,shiny,110,392,-0.582716876,-0.002595989,-0.6528843120000001,right,left,0.021528399985982105,621781,001,2023-04-06_17h50.03.830,non_rigid_shiny_experiment_v3,2022.2.4,60.09752627013749,
276,0,0,-0.303392566,"shiny_rigid_rnl_None_[21, 0, 0]_[-46, 39, 0]_None_1.97_2_19",rigid,shiny,-0.136604225,shiny,rigid,rnl,None,"[21, 0, 0]","[-46, 39, 0]",None,1.97,2,0,0,2,1,1,-0.009930609,validationSet_v7_movies/276.mp4,,,,,8,12,172,12,validationSet_v7_movies/280.mp4,validationSet_v7_movies/188.mp4,shiny,280,188,-0.570944753,0.113420068,-0.770203359,left,left,0.1859126999916043,621781,001,2023-04-06_17h50.03.830,non_rigid_shiny_experiment_v3,2022.2.4,60.09752627013749,
340,0,0,-0.215673261,"shiny_rigid_galileo_None_[9, 0, 0]_[-52, -57, -37]_None_1.011_0_6",rigid,shiny,-0.133372876,shiny,rigid,galileo,None,"[9, 0, 0]","[-52, -57, -37]",None,1.011,0,0,0,2,1,1,-0.007059391,validationSet_v7_movies/340.mp4,,,,,8,13,173,13,validationSet_v7_movies/298.mp4,validationSet_v7_movies/155.mp4,shiny,298,155,-0.639498798,0.053612941,-0.780047386,left,left,0.13404969999101013,621781,001,2023-04-06_17h50.03.830,non_rigid_shiny_experiment_v3,2022.2.4,60.09752627013749,
392,0,0,-0.079310728,"shiny_rigid_abandoned_None_[30, 0, 0]_[29, 35, 43]_None_1.516_2_9",rigid,shiny,-0.128349639,shiny,rigid,abandoned,None,"[30, 0, 0]","[29, 35, 43]",None,1.516,2,0,0,2,1,1,-0.002595989,validationSet_v7_movies/392.mp4,,,,,8,14,174,14,validationSet_v7_movies/126.mp4,validationSet_v7_movies/264.mp4,shiny,126,264,-0.777101626,0.03223399,-0.910848997,right,left,0.2738909999898169,621781,001,2023-04-06_17h50.03.830,non_rigid_shiny_experiment_v3,2022.2.4,60.09752627013749,
264,0,1,0.984788891,"shiny_rigid_rnl_None_[66, 0, 0]_[33, -42, 42]_None_1.956_1_2",rigid,shiny,-0.089151003,shiny,rigid,rnl,None,"[66, 0, 0]","[33, -42, 42]",None,1.956,1,0,0,2,1,1,0.03223399,validationSet_v7_movies/264.mp4,,,,,8,15,175,15,validationSet_v7_movies/281.mp4,validationSet_v7_movies/276.mp4,shiny,281,276,-0.621778058,-0.009930609,-0.688590276,left,left,0.196364800009178,621781,001,2023-04-06_17h50.03.830,non_rigid_shiny_experiment_v3,2022.2.4,60.09752627013749,
155,0,1,1.637942683,"shiny_soft_galileo_None_[24, 0, 0]_[24, 0, 0]_VORTEX_0.969_0_4",soft,shiny,-0.065090533,shiny,soft,galileo,None,"[24, 0, 0]","[24, 0, 0]",VORTEX,0.969,0,0,1,1,-1,-1,0.053612941,validationSet_v7_movies/155.mp4,,,,,8,16,176,16,validationSet_v7_movies/182.mp4,validationSet_v7_movies/235.mp4,shiny,182,235,-0.684325772,-0.019665532,-0.748027272,left,left,0.3055542000220157,621781,001,2023-04-06_17h50.03.830,non_rigid_shiny_experiment_v3,2022.2.4,60.09752627013749,
366,0,1,2.755392713,"shiny_rigid_castel_None_[71, 0, 0]_[-32, -29, -43]_None_1.897_2_18",rigid,shiny,-0.023926608,shiny,rigid,castel,None,"[71, 0, 0]","[-32, -29, -43]",None,1.897,2,0,0,2,1,1,0.09018918,validationSet_v7_movies/366.mp4,,,,,8,17,177,17,validationSet_v7_movies/282.mp4,validationSet_v7_movies/311.mp4,shiny,282,311,-0.595086578,-0.020533448,-0.6466182020000001,right,left,0.19183220001286827,621781,001,2023-04-06_17h50.03.830,non_rigid_shiny_experiment_v3,2022.2.4,60.09752627013749,
188,0,1,3.465125528,"shiny_soft_abandoned_None_[61, 0, 0]_[61, 0, 0]_FORCE_1.086_0_0",soft,shiny,0.002218085,shiny,soft,abandoned,None,"[61, 0, 0]","[61, 0, 0]",FORCE,1.086,0,0,1,1,-1,-1,0.113420068,validationSet_v7_movies/188.mp4,,,,,8,18,178,18,validationSet_v7_movies/117.mp4,validationSet_v7_movies/366.mp4,shiny,117,366,-0.562854078,0.09018918,-0.734953194,left,left,0.4697495000145864,621781,001,2023-04-06_17h50.03.830,non_rigid_shiny_experiment_v3,2022.2.4,60.09752627013749,
67,0,1,4.201147548,"shiny_soft_rnl_None_[69, 0, 0]_[69, 0, 0]_TURBULENCE_1.408_1_6",soft,shiny,0.029331204,shiny,soft,rnl,None,"[69, 0, 0]","[69, 0, 0]",TURBULENCE,1.408,1,0,1,1,-1,-1,0.137511452,validationSet_v7_movies/67.mp4,,,,,8,19,179,19,validationSet_v7_movies/151.mp4,validationSet_v7_movies/340.mp4,shiny,151,340,-0.582218412,-0.007059391,-0.64730009,right,left,0.19993000000249594,621781,001,2023-04-06_17h50.03.830,non_rigid_shiny_experiment_v3,2022.2.4,60.09752627013749,
126,0,0,-23.74143063,"shiny_soft_gothicManor_None_[7, 0, 0]_[7, 0, 0]_CHARGE_1.961_1_5",soft,shiny,-1.0,shiny,soft,gothicManor,None,"[7, 0, 0]","[7, 0, 0]",CHARGE,1.961,1,0,1,1,-1,-1,-0.777101626,validationSet_v7_movies/126.mp4,,,,,9,0,180,0,validationSet_v7_movies/294.mp4,validationSet_v7_movies/340.mp4,shiny,294,340,-0.593384189,-0.007059391,-0.659866369,left,left,0.16038739998475648,621781,001,2023-04-06_17h50.03.830,non_rigid_shiny_experiment_v3,2022.2.4,60.09752627013749,
182,0,0,-20.90701178,"shiny_soft_abandoned_None_[86, 0, 0]_[86, 0, 0]_WIND_1.99_2_7",soft,shiny,-0.895587453,shiny,soft,abandoned,None,"[86, 0, 0]","[86, 0, 0]",WIND,1.99,2,0,1,1,-1,-1,-0.684325772,validationSet_v7_movies/182.mp4,,,,,9,1,181,1,validationSet_v7_movies/110.mp4,validationSet_v7_movies/67.mp4,shiny,110,67,-0.582716876,0.137511452,-0.810565155,right,left,0.11563049998949282,621781,001,2023-04-06_17h50.03.830,non_rigid_shiny_experiment_v3,2022.2.4,60.09752627013749,
298,0,0,-19.53749142,"shiny_rigid_machineShop_None_[19, 0, 0]_[-46, -50, -54]_None_1.838_2_5",rigid,shiny,-0.845137919,shiny,rigid,machineShop,None,"[19, 0, 0]","[-46, -50, -54]",None,1.838,2,0,0,2,1,1,-0.639498798,validationSet_v7_movies/298.mp4,,,,,9,2,182,2,validationSet_v7_movies/280.mp4,validationSet_v7_movies/392.mp4,shiny,280,392,-0.570944753,-0.002595989,-0.6396356350000001,right,left,0.09576889997697435,621781,001,2023-04-06_17h50.03.830,non_rigid_shiny_experiment_v3,2022.2.4,60.09752627013749,
281,0,0,-18.99610056,"shiny_rigid_machineShop_None_[76, 0, 0]_[-53, 38, 48]_None_1.693_2_0",rigid,shiny,-0.825194501,shiny,rigid,machineShop,None,"[76, 0, 0]","[-53, 38, 48]",None,1.693,2,0,0,2,1,1,-0.621778058,validationSet_v7_movies/281.mp4,,,,,9,3,183,3,validationSet_v7_movies/298.mp4,validationSet_v7_movies/188.mp4,shiny,298,188,-0.639498798,0.113420068,-0.847356004,left,left,0.12686059999396093,621781,001,2023-04-06_17h50.03.830,non_rigid_shiny_experiment_v3,2022.2.4,60.09752627013749,
282,0,0,-18.18064232,"shiny_rigid_machineShop_None_[68, 0, 0]_[48, 43, -35]_None_1.08_0_14",rigid,shiny,-0.795155161,shiny,rigid,machineShop,None,"[68, 0, 0]","[48, 43, -35]",None,1.08,0,0,0,2,1,1,-0.595086578,validationSet_v7_movies/282.mp4,,,,,9,4,184,4,validationSet_v7_movies/126.mp4,validationSet_v7_movies/155.mp4,shiny,126,155,-0.777101626,0.053612941,-0.934909467,left,left,0.17390779999550432,621781,001,2023-04-06_17h50.03.830,non_rigid_shiny_experiment_v3,2022.2.4,60.09752627013749,
294,0,0,-18.1286322,"shiny_rigid_machineShop_None_[26, 0, 0]_[48, -42, -46]_None_1.876_2_15",rigid,shiny,-0.793239245,shiny,rigid,machineShop,None,"[26, 0, 0]","[48, -42, -46]",None,1.876,2,0,0,2,1,1,-0.593384189,validationSet_v7_movies/294.mp4,,,,,9,5,185,5,validationSet_v7_movies/281.mp4,validationSet_v7_movies/264.mp4,shiny,281,264,-0.621778058,0.03223399,-0.736043498,left,left,0.20177469999180175,621781,001,2023-04-06_17h50.03.830,non_rigid_shiny_experiment_v3,2022.2.4,60.09752627013749,
110,0,0,-17.80273237,"shiny_soft_lobby_None_[61, 0, 0]_[61, 0, 0]_FORCE_1.816_1_19",soft,shiny,-0.781233951,shiny,soft,lobby,None,"[61, 0, 0]","[61, 0, 0]",FORCE,1.816,1,0,1,1,-1,-1,-0.582716876,validationSet_v7_movies/110.mp4,,,,,9,6,186,6,validationSet_v7_movies/182.mp4,validationSet_v7_movies/276.mp4,shiny,182,276,-0.684325772,-0.009930609,-0.758983228,left,left,0.1473274999880232,621781,001,2023-04-06_17h50.03.830,non_rigid_shiny_experiment_v3,2022.2.4,60.09752627013749,
151,0,0,-17.78750367,"shiny_soft_galileo_None_[54, 0, 0]_[54, 0, 0]_MAGNET_1.292_0_7",soft,shiny,-0.780672966,shiny,soft,galileo,None,"[54, 0, 0]","[54, 0, 0]",MAGNET,1.292,0,0,1,1,-1,-1,-0.582218412,validationSet_v7_movies/151.mp4,,,,,9,7,187,7,validationSet_v7_movies/282.mp4,validationSet_v7_movies/235.mp4,shiny,282,235,-0.595086578,-0.019665532,-0.64759498,right,left,0.14195600000675768,621781,001,2023-04-06_17h50.03.830,non_rigid_shiny_experiment_v3,2022.2.4,60.09752627013749,
280,0,0,-17.44307924,"shiny_rigid_machineShop_None_[88, 0, 0]_[-54, -35, 29]_None_1.046_0_11",rigid,shiny,-0.767985274,shiny,rigid,machineShop,None,"[88, 0, 0]","[-54, -35, 29]",None,1.046,0,0,0,2,1,1,-0.570944753,validationSet_v7_movies/280.mp4,,,,,9,8,188,8,validationSet_v7_movies/117.mp4,validationSet_v7_movies/311.mp4,shiny,117,311,-0.562854078,-0.020533448,-0.6103428430000001,left,left,0.18112410002504475,621781,001,2023-04-06_17h50.03.830,non_rigid_shiny_experiment_v3,2022.2.4,60.09752627013749,
117,0,0,-17.19589897,"shiny_soft_lobby_None_[12, 0, 0]_[12, 0, 0]_WIND_1.567_1_13",soft,shiny,-0.758879802,shiny,soft,lobby,None,"[12, 0, 0]","[12, 0, 0]",WIND,1.567,1,0,1,1,-1,-1,-0.562854078,validationSet_v7_movies/117.mp4,,,,,9,9,189,9,validationSet_v7_movies/151.mp4,validationSet_v7_movies/366.mp4,shiny,151,366,-0.582218412,0.09018918,-0.756746358,left,left,0.1847927999915555,621781,001,2023-04-06_17h50.03.830,non_rigid_shiny_experiment_v3,2022.2.4,60.09752627013749,
311,0,0,-0.627322638,"shiny_rigid_lobby_None_[32, 0, 0]_[47, -44, 0]_None_1.844_2_15",rigid,shiny,-0.148536959,shiny,rigid,lobby,None,"[32, 0, 0]","[47, -44, 0]",None,1.844,2,0,0,2,1,1,-0.020533448,validationSet_v7_movies/311.mp4,,,,,9,10,190,10,validationSet_v7_movies/294.mp4,validationSet_v7_movies/366.mp4,shiny,294,366,-0.593384189,0.09018918,-0.769312637,right,left,0.17179210000904277,621781,001,2023-04-06_17h50.03.830,non_rigid_shiny_experiment_v3,2022.2.4,60.09752627013749,
235,0,0,-0.60080669,"shiny_rigid_uenoShrine_None_[31, 0, 0]_[-44, 30, 36]_None_0.941_0_5",rigid,shiny,-0.147560181,shiny,rigid,uenoShrine,None,"[31, 0, 0]","[-44, 30, 36]",None,0.941,0,0,0,2,1,1,-0.019665532,validationSet_v7_movies/235.mp4,,,,,9,11,191,11,validationSet_v7_movies/110.mp4,validationSet_v7_movies/340.mp4,shiny,110,340,-0.582716876,-0.007059391,-0.647861075,left,left,0.0026931999891530722,621781,001,2023-04-06_17h50.03.830,non_rigid_shiny_experiment_v3,2022.2.4,60.09752627013749,
276,0,0,-0.303392566,"shiny_rigid_rnl_None_[21, 0, 0]_[-46, 39, 0]_None_1.97_2_19",rigid,shiny,-0.136604225,shiny,rigid,rnl,None,"[21, 0, 0]","[-46, 39, 0]",None,1.97,2,0,0,2,1,1,-0.009930609,validationSet_v7_movies/276.mp4,,,,,9,12,192,12,validationSet_v7_movies/280.mp4,validationSet_v7_movies/67.mp4,shiny,280,67,-0.570944753,0.137511452,-0.797316478,right,left,0.2001287000020966,621781,001,2023-04-06_17h50.03.830,non_rigid_shiny_experiment_v3,2022.2.4,60.09752627013749,
340,0,0,-0.215673261,"shiny_rigid_galileo_None_[9, 0, 0]_[-52, -57, -37]_None_1.011_0_6",rigid,shiny,-0.133372876,shiny,rigid,galileo,None,"[9, 0, 0]","[-52, -57, -37]",None,1.011,0,0,0,2,1,1,-0.007059391,validationSet_v7_movies/340.mp4,,,,,9,13,193,13,validationSet_v7_movies/298.mp4,validationSet_v7_movies/392.mp4,shiny,298,392,-0.639498798,-0.002595989,-0.71678828,right,left,0.10900500000570901,621781,001,2023-04-06_17h50.03.830,non_rigid_shiny_experiment_v3,2022.2.4,60.09752627013749,
392,0,0,-0.079310728,"shiny_rigid_abandoned_None_[30, 0, 0]_[29, 35, 43]_None_1.516_2_9",rigid,shiny,-0.128349639,shiny,rigid,abandoned,None,"[30, 0, 0]","[29, 35, 43]",None,1.516,2,0,0,2,1,1,-0.002595989,validationSet_v7_movies/392.mp4,,,,,9,14,194,14,validationSet_v7_movies/126.mp4,validationSet_v7_movies/188.mp4,shiny,126,188,-0.777101626,0.113420068,-1.002218085,left,left,0.03359810000983998,621781,001,2023-04-06_17h50.03.830,non_rigid_shiny_experiment_v3,2022.2.4,60.09752627013749,
264,0,1,0.984788891,"shiny_rigid_rnl_None_[66, 0, 0]_[33, -42, 42]_None_1.956_1_2",rigid,shiny,-0.089151003,shiny,rigid,rnl,None,"[66, 0, 0]","[33, -42, 42]",None,1.956,1,0,0,2,1,1,0.03223399,validationSet_v7_movies/264.mp4,,,,,9,15,195,15,validationSet_v7_movies/281.mp4,validationSet_v7_movies/155.mp4,shiny,281,155,-0.621778058,0.053612941,-0.760103968,right,left,0.026027599989902228,621781,001,2023-04-06_17h50.03.830,non_rigid_shiny_experiment_v3,2022.2.4,60.09752627013749,
155,0,1,1.637942683,"shiny_soft_galileo_None_[24, 0, 0]_[24, 0, 0]_VORTEX_0.969_0_4",soft,shiny,-0.065090533,shiny,soft,galileo,None,"[24, 0, 0]","[24, 0, 0]",VORTEX,0.969,0,0,1,1,-1,-1,0.053612941,validationSet_v7_movies/155.mp4,,,,,9,16,196,16,validationSet_v7_movies/182.mp4,validationSet_v7_movies/264.mp4,shiny,182,264,-0.684325772,0.03223399,-0.80643645,left,left,0.0010224000143352896,621781,001,2023-04-06_17h50.03.830,non_rigid_shiny_experiment_v3,2022.2.4,60.09752627013749,
366,0,1,2.755392713,"shiny_rigid_castel_None_[71, 0, 0]_[-32, -29, -43]_None_1.897_2_18",rigid,shiny,-0.023926608,shiny,rigid,castel,None,"[71, 0, 0]","[-32, -29, -43]",None,1.897,2,0,0,2,1,1,0.09018918,validationSet_v7_movies/366.mp4,,,,,9,17,197,17,validationSet_v7_movies/282.mp4,validationSet_v7_movies/276.mp4,shiny,282,276,-0.595086578,-0.009930609,-0.658550936,right,left,0.20482419998734258,621781,001,2023-04-06_17h50.03.830,non_rigid_shiny_experiment_v3,2022.2.4,60.09752627013749,
188,0,1,3.465125528,"shiny_soft_abandoned_None_[61, 0, 0]_[61, 0, 0]_FORCE_1.086_0_0",soft,shiny,0.002218085,shiny,soft,abandoned,None,"[61, 0, 0]","[61, 0, 0]",FORCE,1.086,0,0,1,1,-1,-1,0.113420068,validationSet_v7_movies/188.mp4,,,,,9,18,198,18,validationSet_v7_movies/117.mp4,validationSet_v7_movies/235.mp4,shiny,117,235,-0.562854078,-0.019665532,-0.611319621,left,left,0.12965590000385419,621781,001,2023-04-06_17h50.03.830,non_rigid_shiny_experiment_v3,2022.2.4,60.09752627013749,
67,0,1,4.201147548,"shiny_soft_rnl_None_[69, 0, 0]_[69, 0, 0]_TURBULENCE_1.408_1_6",soft,shiny,0.029331204,shiny,soft,rnl,None,"[69, 0, 0]","[69, 0, 0]",TURBULENCE,1.408,1,0,1,1,-1,-1,0.137511452,validationSet_v7_movies/67.mp4,,,,,9,19,199,19,validationSet_v7_movies/151.mp4,validationSet_v7_movies/311.mp4,shiny,151,311,-0.582218412,-0.020533448,-0.632136007,left,left,0.009312400012277067,621781,001,2023-04-06_17h50.03.830,non_rigid_shiny_experiment_v3,2022.2.4,60.09752627013749,
