test_object,true_type,classified_as,decision_value,material_name,rigidity,glossiness,decision_value_norm,Glossiness,Rigidity,Enviroment_Map,Texture,init_rot,end_rot,Force,disp_scale,disp_depth,glossID,rigidID,type_truncted,type8way,detail,decisionNormalized,obj_dir,shiny_adap_trials.thisRepN,shiny_adap_trials.thisTrialN,shiny_adap_trials.thisN,shiny_adap_trials.thisIndex,gloss_trials.thisRepN,gloss_trials.thisTrialN,gloss_trials.thisN,gloss_trials.thisIndex,high_dec_dir,low_dec_dir,groundTruth,highly,lowInd,highDecision,lowDecision,deltaDecision,actual_target_pos,response.keys,cor,response.rt,participant,date,expName,psychopyVersion,frameRate
126,0,0,-23.74143063,"shiny_soft_gothicManor_None_[7, 0, 0]_[7, 0, 0]_CHARGE_1.961_1_5",soft,shiny,-1,shiny,soft,gothicManor,None,"[7, 0, 0]","[7, 0, 0]",CHARGE,1.961,1,0,1,1,-1,-1,-0.777101626,validationSet_v7_movies/126.mp4,,,,,0,0,0,0,validationSet_v7_movies/281.mp4,validationSet_v7_movies/155.mp4,shiny,281,155,-0.621778058,0.053612941,-0.760103968,right,right,1,5.0604522,omer,2023-04-10_15h00.57.767,non_rigid_shiny_experiment_v3,2022.2.4,60.15815581
182,0,0,-20.90701178,"shiny_soft_abandoned_None_[86, 0, 0]_[86, 0, 0]_WIND_1.99_2_7",soft,shiny,-0.895587453,shiny,soft,abandoned,None,"[86, 0, 0]","[86, 0, 0]",WIND,1.99,2,0,1,1,-1,-1,-0.684325772,validationSet_v7_movies/182.mp4,,,,,0,1,1,1,validationSet_v7_movies/117.mp4,validationSet_v7_movies/276.mp4,shiny,117,276,-0.562854078,-0.009930609,-0.622275577,left,left,1,9.121863,omer,2023-04-10_15h00.57.767,non_rigid_shiny_experiment_v3,2022.2.4,60.15815581
298,0,0,-19.53749142,"shiny_rigid_machineShop_None_[19, 0, 0]_[-46, -50, -54]_None_1.838_2_5",rigid,shiny,-0.845137919,shiny,rigid,machineShop,None,"[19, 0, 0]","[-46, -50, -54]",None,1.838,2,0,0,2,1,1,-0.639498798,validationSet_v7_movies/298.mp4,,,,,0,2,2,2,validationSet_v7_movies/282.mp4,validationSet_v7_movies/188.mp4,shiny,282,188,-0.595086578,0.113420068,-0.797373246,left,right,0,10.7793167,omer,2023-04-10_15h00.57.767,non_rigid_shiny_experiment_v3,2022.2.4,60.15815581
281,0,0,-18.99610056,"shiny_rigid_machineShop_None_[76, 0, 0]_[-53, 38, 48]_None_1.693_2_0",rigid,shiny,-0.825194501,shiny,rigid,machineShop,None,"[76, 0, 0]","[-53, 38, 48]",None,1.693,2,0,0,2,1,1,-0.621778058,validationSet_v7_movies/281.mp4,,,,,0,3,3,3,validationSet_v7_movies/280.mp4,validationSet_v7_movies/67.mp4,shiny,280,67,-0.570944753,0.137511452,-0.797316478,right,left,0,7.624022,omer,2023-04-10_15h00.57.767,non_rigid_shiny_experiment_v3,2022.2.4,60.15815581
282,0,0,-18.18064232,"shiny_rigid_machineShop_None_[68, 0, 0]_[48, 43, -35]_None_1.08_0_14",rigid,shiny,-0.795155161,shiny,rigid,machineShop,None,"[68, 0, 0]","[48, 43, -35]",None,1.08,0,0,0,2,1,1,-0.595086578,validationSet_v7_movies/282.mp4,,,,,0,4,4,4,validationSet_v7_movies/182.mp4,validationSet_v7_movies/235.mp4,shiny,182,235,-0.684325772,-0.019665532,-0.748027272,left,right,0,12.5115234,omer,2023-04-10_15h00.57.767,non_rigid_shiny_experiment_v3,2022.2.4,60.15815581
294,0,0,-18.1286322,"shiny_rigid_machineShop_None_[26, 0, 0]_[48, -42, -46]_None_1.876_2_15",rigid,shiny,-0.793239245,shiny,rigid,machineShop,None,"[26, 0, 0]","[48, -42, -46]",None,1.876,2,0,0,2,1,1,-0.593384189,validationSet_v7_movies/294.mp4,,,,,0,5,5,5,validationSet_v7_movies/110.mp4,validationSet_v7_movies/311.mp4,shiny,110,311,-0.582716876,-0.020533448,-0.632696992,right,left,0,16.4669902,omer,2023-04-10_15h00.57.767,non_rigid_shiny_experiment_v3,2022.2.4,60.15815581
110,0,0,-17.80273237,"shiny_soft_lobby_None_[61, 0, 0]_[61, 0, 0]_FORCE_1.816_1_19",soft,shiny,-0.781233951,shiny,soft,lobby,None,"[61, 0, 0]","[61, 0, 0]",FORCE,1.816,1,0,1,1,-1,-1,-0.582716876,validationSet_v7_movies/110.mp4,,,,,0,6,6,6,validationSet_v7_movies/151.mp4,validationSet_v7_movies/366.mp4,shiny,151,366,-0.582218412,0.09018918,-0.756746358,left,right,0,7.6783468,omer,2023-04-10_15h00.57.767,non_rigid_shiny_experiment_v3,2022.2.4,60.15815581
151,0,0,-17.78750367,"shiny_soft_galileo_None_[54, 0, 0]_[54, 0, 0]_MAGNET_1.292_0_7",soft,shiny,-0.780672966,shiny,soft,galileo,None,"[54, 0, 0]","[54, 0, 0]",MAGNET,1.292,0,0,1,1,-1,-1,-0.582218412,validationSet_v7_movies/151.mp4,,,,,0,7,7,7,validationSet_v7_movies/298.mp4,validationSet_v7_movies/340.mp4,shiny,298,340,-0.639498798,-0.007059391,-0.711765043,left,right,0,20.6418949,omer,2023-04-10_15h00.57.767,non_rigid_shiny_experiment_v3,2022.2.4,60.15815581
280,0,0,-17.44307924,"shiny_rigid_machineShop_None_[88, 0, 0]_[-54, -35, 29]_None_1.046_0_11",rigid,shiny,-0.767985274,shiny,rigid,machineShop,None,"[88, 0, 0]","[-54, -35, 29]",None,1.046,0,0,0,2,1,1,-0.570944753,validationSet_v7_movies/280.mp4,,,,,0,8,8,8,validationSet_v7_movies/294.mp4,validationSet_v7_movies/264.mp4,shiny,294,264,-0.593384189,0.03223399,-0.704088242,right,right,1,5.7292879,omer,2023-04-10_15h00.57.767,non_rigid_shiny_experiment_v3,2022.2.4,60.15815581
117,0,0,-17.19589897,"shiny_soft_lobby_None_[12, 0, 0]_[12, 0, 0]_WIND_1.567_1_13",soft,shiny,-0.758879802,shiny,soft,lobby,None,"[12, 0, 0]","[12, 0, 0]",WIND,1.567,1,0,1,1,-1,-1,-0.562854078,validationSet_v7_movies/117.mp4,,,,,0,9,9,9,validationSet_v7_movies/126.mp4,validationSet_v7_movies/392.mp4,shiny,126,392,-0.777101626,-0.002595989,-0.871650361,right,left,0,1.8580362,omer,2023-04-10_15h00.57.767,non_rigid_shiny_experiment_v3,2022.2.4,60.15815581
311,0,0,-0.627322638,"shiny_rigid_lobby_None_[32, 0, 0]_[47, -44, 0]_None_1.844_2_15",rigid,shiny,-0.148536959,shiny,rigid,lobby,None,"[32, 0, 0]","[47, -44, 0]",None,1.844,2,0,0,2,1,1,-0.020533448,validationSet_v7_movies/311.mp4,,,,,0,10,10,10,validationSet_v7_movies/281.mp4,validationSet_v7_movies/392.mp4,shiny,281,392,-0.621778058,-0.002595989,-0.696844862,right,left,0,15.8627506,omer,2023-04-10_15h00.57.767,non_rigid_shiny_experiment_v3,2022.2.4,60.15815581
235,0,0,-0.60080669,"shiny_rigid_uenoShrine_None_[31, 0, 0]_[-44, 30, 36]_None_0.941_0_5",rigid,shiny,-0.147560181,shiny,rigid,uenoShrine,None,"[31, 0, 0]","[-44, 30, 36]",None,0.941,0,0,0,2,1,1,-0.019665532,validationSet_v7_movies/235.mp4,,,,,0,11,11,11,validationSet_v7_movies/117.mp4,validationSet_v7_movies/155.mp4,shiny,117,155,-0.562854078,0.053612941,-0.693789269,left,left,1,4.0839641,omer,2023-04-10_15h00.57.767,non_rigid_shiny_experiment_v3,2022.2.4,60.15815581
276,0,0,-0.303392566,"shiny_rigid_rnl_None_[21, 0, 0]_[-46, 39, 0]_None_1.97_2_19",rigid,shiny,-0.136604225,shiny,rigid,rnl,None,"[21, 0, 0]","[-46, 39, 0]",None,1.97,2,0,0,2,1,1,-0.009930609,validationSet_v7_movies/276.mp4,,,,,0,12,12,12,validationSet_v7_movies/282.mp4,validationSet_v7_movies/276.mp4,shiny,282,276,-0.595086578,-0.009930609,-0.658550936,left,left,1,7.9667844,omer,2023-04-10_15h00.57.767,non_rigid_shiny_experiment_v3,2022.2.4,60.15815581
340,0,0,-0.215673261,"shiny_rigid_galileo_None_[9, 0, 0]_[-52, -57, -37]_None_1.011_0_6",rigid,shiny,-0.133372876,shiny,rigid,galileo,None,"[9, 0, 0]","[-52, -57, -37]",None,1.011,0,0,0,2,1,1,-0.007059391,validationSet_v7_movies/340.mp4,,,,,0,13,13,13,validationSet_v7_movies/280.mp4,validationSet_v7_movies/188.mp4,shiny,280,188,-0.570944753,0.113420068,-0.770203359,right,left,0,22.8478795,omer,2023-04-10_15h00.57.767,non_rigid_shiny_experiment_v3,2022.2.4,60.15815581
392,0,0,-0.079310728,"shiny_rigid_abandoned_None_[30, 0, 0]_[29, 35, 43]_None_1.516_2_9",rigid,shiny,-0.128349639,shiny,rigid,abandoned,None,"[30, 0, 0]","[29, 35, 43]",None,1.516,2,0,0,2,1,1,-0.002595989,validationSet_v7_movies/392.mp4,,,,,0,14,14,14,validationSet_v7_movies/182.mp4,validationSet_v7_movies/67.mp4,shiny,182,67,-0.684325772,0.137511452,-0.924918657,right,left,0,11.5597133,omer,2023-04-10_15h00.57.767,non_rigid_shiny_experiment_v3,2022.2.4,60.15815581
264,0,1,0.984788891,"shiny_rigid_rnl_None_[66, 0, 0]_[33, -42, 42]_None_1.956_1_2",rigid,shiny,-0.089151003,shiny,rigid,rnl,None,"[66, 0, 0]","[33, -42, 42]",None,1.956,1,0,0,2,1,1,0.03223399,validationSet_v7_movies/264.mp4,,,,,0,15,15,15,validationSet_v7_movies/110.mp4,validationSet_v7_movies/235.mp4,shiny,110,235,-0.582716876,-0.019665532,-0.63367377,left,right,0,7.7804053,omer,2023-04-10_15h00.57.767,non_rigid_shiny_experiment_v3,2022.2.4,60.15815581
155,0,1,1.637942683,"shiny_soft_galileo_None_[24, 0, 0]_[24, 0, 0]_VORTEX_0.969_0_4",soft,shiny,-0.065090533,shiny,soft,galileo,None,"[24, 0, 0]","[24, 0, 0]",VORTEX,0.969,0,0,1,1,-1,-1,0.053612941,validationSet_v7_movies/155.mp4,,,,,0,16,16,16,validationSet_v7_movies/151.mp4,validationSet_v7_movies/311.mp4,shiny,151,311,-0.582218412,-0.020533448,-0.632136007,right,left,0,2.9388195,omer,2023-04-10_15h00.57.767,non_rigid_shiny_experiment_v3,2022.2.4,60.15815581
366,0,1,2.755392713,"shiny_rigid_castel_None_[71, 0, 0]_[-32, -29, -43]_None_1.897_2_18",rigid,shiny,-0.023926608,shiny,rigid,castel,None,"[71, 0, 0]","[-32, -29, -43]",None,1.897,2,0,0,2,1,1,0.09018918,validationSet_v7_movies/366.mp4,,,,,0,17,17,17,validationSet_v7_movies/298.mp4,validationSet_v7_movies/366.mp4,shiny,298,366,-0.639498798,0.09018918,-0.821211311,left,left,1,4.9157464,omer,2023-04-10_15h00.57.767,non_rigid_shiny_experiment_v3,2022.2.4,60.15815581
188,0,1,3.465125528,"shiny_soft_abandoned_None_[61, 0, 0]_[61, 0, 0]_FORCE_1.086_0_0",soft,shiny,0.002218085,shiny,soft,abandoned,None,"[61, 0, 0]","[61, 0, 0]",FORCE,1.086,0,0,1,1,-1,-1,0.113420068,validationSet_v7_movies/188.mp4,,,,,0,18,18,18,validationSet_v7_movies/294.mp4,validationSet_v7_movies/340.mp4,shiny,294,340,-0.593384189,-0.007059391,-0.659866369,right,right,1,5.4269004,omer,2023-04-10_15h00.57.767,non_rigid_shiny_experiment_v3,2022.2.4,60.15815581
67,0,1,4.201147548,"shiny_soft_rnl_None_[69, 0, 0]_[69, 0, 0]_TURBULENCE_1.408_1_6",soft,shiny,0.029331204,shiny,soft,rnl,None,"[69, 0, 0]","[69, 0, 0]",TURBULENCE,1.408,1,0,1,1,-1,-1,0.137511452,validationSet_v7_movies/67.mp4,,,,,0,19,19,19,validationSet_v7_movies/126.mp4,validationSet_v7_movies/264.mp4,shiny,126,264,-0.777101626,0.03223399,-0.910848997,right,left,0,1.4831922,omer,2023-04-10_15h00.57.767,non_rigid_shiny_experiment_v3,2022.2.4,60.15815581
126,0,0,-23.74143063,"shiny_soft_gothicManor_None_[7, 0, 0]_[7, 0, 0]_CHARGE_1.961_1_5",soft,shiny,-1,shiny,soft,gothicManor,None,"[7, 0, 0]","[7, 0, 0]",CHARGE,1.961,1,0,1,1,-1,-1,-0.777101626,validationSet_v7_movies/126.mp4,,,,,1,0,20,0,validationSet_v7_movies/281.mp4,validationSet_v7_movies/264.mp4,shiny,281,264,-0.621778058,0.03223399,-0.736043498,right,right,1,7.5130695,omer,2023-04-10_15h00.57.767,non_rigid_shiny_experiment_v3,2022.2.4,60.15815581
182,0,0,-20.90701178,"shiny_soft_abandoned_None_[86, 0, 0]_[86, 0, 0]_WIND_1.99_2_7",soft,shiny,-0.895587453,shiny,soft,abandoned,None,"[86, 0, 0]","[86, 0, 0]",WIND,1.99,2,0,1,1,-1,-1,-0.684325772,validationSet_v7_movies/182.mp4,,,,,1,1,21,1,validationSet_v7_movies/117.mp4,validationSet_v7_movies/392.mp4,shiny,117,392,-0.562854078,-0.002595989,-0.630530163,right,right,1,8.0369233,omer,2023-04-10_15h00.57.767,non_rigid_shiny_experiment_v3,2022.2.4,60.15815581
298,0,0,-19.53749142,"shiny_rigid_machineShop_None_[19, 0, 0]_[-46, -50, -54]_None_1.838_2_5",rigid,shiny,-0.845137919,shiny,rigid,machineShop,None,"[19, 0, 0]","[-46, -50, -54]",None,1.838,2,0,0,2,1,1,-0.639498798,validationSet_v7_movies/298.mp4,,,,,1,2,22,2,validationSet_v7_movies/282.mp4,validationSet_v7_movies/155.mp4,shiny,282,155,-0.595086578,0.053612941,-0.730064628,right,right,1,1.9130937,omer,2023-04-10_15h00.57.767,non_rigid_shiny_experiment_v3,2022.2.4,60.15815581
281,0,0,-18.99610056,"shiny_rigid_machineShop_None_[76, 0, 0]_[-53, 38, 48]_None_1.693_2_0",rigid,shiny,-0.825194501,shiny,rigid,machineShop,None,"[76, 0, 0]","[-53, 38, 48]",None,1.693,2,0,0,2,1,1,-0.621778058,validationSet_v7_movies/281.mp4,,,,,1,3,23,3,validationSet_v7_movies/280.mp4,validationSet_v7_movies/276.mp4,shiny,280,276,-0.570944753,-0.009930609,-0.631381049,left,right,0,6.0118659,omer,2023-04-10_15h00.57.767,non_rigid_shiny_experiment_v3,2022.2.4,60.15815581
282,0,0,-18.18064232,"shiny_rigid_machineShop_None_[68, 0, 0]_[48, 43, -35]_None_1.08_0_14",rigid,shiny,-0.795155161,shiny,rigid,machineShop,None,"[68, 0, 0]","[48, 43, -35]",None,1.08,0,0,0,2,1,1,-0.595086578,validationSet_v7_movies/282.mp4,,,,,1,4,24,4,validationSet_v7_movies/182.mp4,validationSet_v7_movies/188.mp4,shiny,182,188,-0.684325772,0.113420068,-0.897805538,right,left,0,2.9955422,omer,2023-04-10_15h00.57.767,non_rigid_shiny_experiment_v3,2022.2.4,60.15815581
294,0,0,-18.1286322,"shiny_rigid_machineShop_None_[26, 0, 0]_[48, -42, -46]_None_1.876_2_15",rigid,shiny,-0.793239245,shiny,rigid,machineShop,None,"[26, 0, 0]","[48, -42, -46]",None,1.876,2,0,0,2,1,1,-0.593384189,validationSet_v7_movies/294.mp4,,,,,1,5,25,5,validationSet_v7_movies/110.mp4,validationSet_v7_movies/67.mp4,shiny,110,67,-0.582716876,0.137511452,-0.810565155,left,right,0,6.4161569,omer,2023-04-10_15h00.57.767,non_rigid_shiny_experiment_v3,2022.2.4,60.15815581
110,0,0,-17.80273237,"shiny_soft_lobby_None_[61, 0, 0]_[61, 0, 0]_FORCE_1.816_1_19",soft,shiny,-0.781233951,shiny,soft,lobby,None,"[61, 0, 0]","[61, 0, 0]",FORCE,1.816,1,0,1,1,-1,-1,-0.582716876,validationSet_v7_movies/110.mp4,,,,,1,6,26,6,validationSet_v7_movies/151.mp4,validationSet_v7_movies/235.mp4,shiny,151,235,-0.582218412,-0.019665532,-0.633112785,left,right,0,3.4172262,omer,2023-04-10_15h00.57.767,non_rigid_shiny_experiment_v3,2022.2.4,60.15815581
151,0,0,-17.78750367,"shiny_soft_galileo_None_[54, 0, 0]_[54, 0, 0]_MAGNET_1.292_0_7",soft,shiny,-0.780672966,shiny,soft,galileo,None,"[54, 0, 0]","[54, 0, 0]",MAGNET,1.292,0,0,1,1,-1,-1,-0.582218412,validationSet_v7_movies/151.mp4,,,,,1,7,27,7,validationSet_v7_movies/298.mp4,validationSet_v7_movies/311.mp4,shiny,298,311,-0.639498798,-0.020533448,-0.69660096,right,left,0,21.4710582,omer,2023-04-10_15h00.57.767,non_rigid_shiny_experiment_v3,2022.2.4,60.15815581
280,0,0,-17.44307924,"shiny_rigid_machineShop_None_[88, 0, 0]_[-54, -35, 29]_None_1.046_0_11",rigid,shiny,-0.767985274,shiny,rigid,machineShop,None,"[88, 0, 0]","[-54, -35, 29]",None,1.046,0,0,0,2,1,1,-0.570944753,validationSet_v7_movies/280.mp4,,,,,1,8,28,8,validationSet_v7_movies/294.mp4,validationSet_v7_movies/366.mp4,shiny,294,366,-0.593384189,0.09018918,-0.769312637,right,right,1,1.7827558,omer,2023-04-10_15h00.57.767,non_rigid_shiny_experiment_v3,2022.2.4,60.15815581
117,0,0,-17.19589897,"shiny_soft_lobby_None_[12, 0, 0]_[12, 0, 0]_WIND_1.567_1_13",soft,shiny,-0.758879802,shiny,soft,lobby,None,"[12, 0, 0]","[12, 0, 0]",WIND,1.567,1,0,1,1,-1,-1,-0.562854078,validationSet_v7_movies/117.mp4,,,,,1,9,29,9,validationSet_v7_movies/126.mp4,validationSet_v7_movies/340.mp4,shiny,126,340,-0.777101626,-0.007059391,-0.866627124,right,left,0,1.0612547,omer,2023-04-10_15h00.57.767,non_rigid_shiny_experiment_v3,2022.2.4,60.15815581
311,0,0,-0.627322638,"shiny_rigid_lobby_None_[32, 0, 0]_[47, -44, 0]_None_1.844_2_15",rigid,shiny,-0.148536959,shiny,rigid,lobby,None,"[32, 0, 0]","[47, -44, 0]",None,1.844,2,0,0,2,1,1,-0.020533448,validationSet_v7_movies/311.mp4,,,,,1,10,30,10,validationSet_v7_movies/281.mp4,validationSet_v7_movies/340.mp4,shiny,281,340,-0.621778058,-0.007059391,-0.691821625,right,right,1,3.9405983,omer,2023-04-10_15h00.57.767,non_rigid_shiny_experiment_v3,2022.2.4,60.15815581
235,0,0,-0.60080669,"shiny_rigid_uenoShrine_None_[31, 0, 0]_[-44, 30, 36]_None_0.941_0_5",rigid,shiny,-0.147560181,shiny,rigid,uenoShrine,None,"[31, 0, 0]","[-44, 30, 36]",None,0.941,0,0,0,2,1,1,-0.019665532,validationSet_v7_movies/235.mp4,,,,,1,11,31,11,validationSet_v7_movies/117.mp4,validationSet_v7_movies/264.mp4,shiny,117,264,-0.562854078,0.03223399,-0.669728799,left,left,1,5.1522739,omer,2023-04-10_15h00.57.767,non_rigid_shiny_experiment_v3,2022.2.4,60.15815581
276,0,0,-0.303392566,"shiny_rigid_rnl_None_[21, 0, 0]_[-46, 39, 0]_None_1.97_2_19",rigid,shiny,-0.136604225,shiny,rigid,rnl,None,"[21, 0, 0]","[-46, 39, 0]",None,1.97,2,0,0,2,1,1,-0.009930609,validationSet_v7_movies/276.mp4,,,,,1,12,32,12,validationSet_v7_movies/282.mp4,validationSet_v7_movies/392.mp4,shiny,282,392,-0.595086578,-0.002595989,-0.666805522,right,left,0,7.2915798,omer,2023-04-10_15h00.57.767,non_rigid_shiny_experiment_v3,2022.2.4,60.15815581
340,0,0,-0.215673261,"shiny_rigid_galileo_None_[9, 0, 0]_[-52, -57, -37]_None_1.011_0_6",rigid,shiny,-0.133372876,shiny,rigid,galileo,None,"[9, 0, 0]","[-52, -57, -37]",None,1.011,0,0,0,2,1,1,-0.007059391,validationSet_v7_movies/340.mp4,,,,,1,13,33,13,validationSet_v7_movies/280.mp4,validationSet_v7_movies/155.mp4,shiny,280,155,-0.570944753,0.053612941,-0.702894741,left,right,0,5.9253397,omer,2023-04-10_15h00.57.767,non_rigid_shiny_experiment_v3,2022.2.4,60.15815581
392,0,0,-0.079310728,"shiny_rigid_abandoned_None_[30, 0, 0]_[29, 35, 43]_None_1.516_2_9",rigid,shiny,-0.128349639,shiny,rigid,abandoned,None,"[30, 0, 0]","[29, 35, 43]",None,1.516,2,0,0,2,1,1,-0.002595989,validationSet_v7_movies/392.mp4,,,,,1,14,34,14,validationSet_v7_movies/182.mp4,validationSet_v7_movies/276.mp4,shiny,182,276,-0.684325772,-0.009930609,-0.758983228,left,right,0,2.429393,omer,2023-04-10_15h00.57.767,non_rigid_shiny_experiment_v3,2022.2.4,60.15815581
264,0,1,0.984788891,"shiny_rigid_rnl_None_[66, 0, 0]_[33, -42, 42]_None_1.956_1_2",rigid,shiny,-0.089151003,shiny,rigid,rnl,None,"[66, 0, 0]","[33, -42, 42]",None,1.956,1,0,0,2,1,1,0.03223399,validationSet_v7_movies/264.mp4,,,,,1,15,35,15,validationSet_v7_movies/110.mp4,validationSet_v7_movies/188.mp4,shiny,110,188,-0.582716876,0.113420068,-0.783452036,left,right,0,1.7368873,omer,2023-04-10_15h00.57.767,non_rigid_shiny_experiment_v3,2022.2.4,60.15815581
155,0,1,1.637942683,"shiny_soft_galileo_None_[24, 0, 0]_[24, 0, 0]_VORTEX_0.969_0_4",soft,shiny,-0.065090533,shiny,soft,galileo,None,"[24, 0, 0]","[24, 0, 0]",VORTEX,0.969,0,0,1,1,-1,-1,0.053612941,validationSet_v7_movies/155.mp4,,,,,1,16,36,16,validationSet_v7_movies/151.mp4,validationSet_v7_movies/67.mp4,shiny,151,67,-0.582218412,0.137511452,-0.81000417,left,right,0,0.9734915,omer,2023-04-10_15h00.57.767,non_rigid_shiny_experiment_v3,2022.2.4,60.15815581
366,0,1,2.755392713,"shiny_rigid_castel_None_[71, 0, 0]_[-32, -29, -43]_None_1.897_2_18",rigid,shiny,-0.023926608,shiny,rigid,castel,None,"[71, 0, 0]","[-32, -29, -43]",None,1.897,2,0,0,2,1,1,0.09018918,validationSet_v7_movies/366.mp4,,,,,1,17,37,17,validationSet_v7_movies/298.mp4,validationSet_v7_movies/235.mp4,shiny,298,235,-0.639498798,-0.019665532,-0.697577738,left,right,0,3.8500433,omer,2023-04-10_15h00.57.767,non_rigid_shiny_experiment_v3,2022.2.4,60.15815581
188,0,1,3.465125528,"shiny_soft_abandoned_None_[61, 0, 0]_[61, 0, 0]_FORCE_1.086_0_0",soft,shiny,0.002218085,shiny,soft,abandoned,None,"[61, 0, 0]","[61, 0, 0]",FORCE,1.086,0,0,1,1,-1,-1,0.113420068,validationSet_v7_movies/188.mp4,,,,,1,18,38,18,validationSet_v7_movies/294.mp4,validationSet_v7_movies/311.mp4,shiny,294,311,-0.593384189,-0.020533448,-0.644702286,left,left,1,8.9719279,omer,2023-04-10_15h00.57.767,non_rigid_shiny_experiment_v3,2022.2.4,60.15815581
67,0,1,4.201147548,"shiny_soft_rnl_None_[69, 0, 0]_[69, 0, 0]_TURBULENCE_1.408_1_6",soft,shiny,0.029331204,shiny,soft,rnl,None,"[69, 0, 0]","[69, 0, 0]",TURBULENCE,1.408,1,0,1,1,-1,-1,0.137511452,validationSet_v7_movies/67.mp4,,,,,1,19,39,19,validationSet_v7_movies/126.mp4,validationSet_v7_movies/366.mp4,shiny,126,366,-0.777101626,0.09018918,-0.976073392,right,left,0,2.7142169,omer,2023-04-10_15h00.57.767,non_rigid_shiny_experiment_v3,2022.2.4,60.15815581
126,0,0,-23.74143063,"shiny_soft_gothicManor_None_[7, 0, 0]_[7, 0, 0]_CHARGE_1.961_1_5",soft,shiny,-1,shiny,soft,gothicManor,None,"[7, 0, 0]","[7, 0, 0]",CHARGE,1.961,1,0,1,1,-1,-1,-0.777101626,validationSet_v7_movies/126.mp4,,,,,2,0,40,0,validationSet_v7_movies/281.mp4,validationSet_v7_movies/366.mp4,shiny,281,366,-0.621778058,0.09018918,-0.801267893,left,left,1,2.266515,omer,2023-04-10_15h00.57.767,non_rigid_shiny_experiment_v3,2022.2.4,60.15815581
182,0,0,-20.90701178,"shiny_soft_abandoned_None_[86, 0, 0]_[86, 0, 0]_WIND_1.99_2_7",soft,shiny,-0.895587453,shiny,soft,abandoned,None,"[86, 0, 0]","[86, 0, 0]",WIND,1.99,2,0,1,1,-1,-1,-0.684325772,validationSet_v7_movies/182.mp4,,,,,2,1,41,1,validationSet_v7_movies/117.mp4,validationSet_v7_movies/340.mp4,shiny,117,340,-0.562854078,-0.007059391,-0.625506926,right,right,1,1.0223085,omer,2023-04-10_15h00.57.767,non_rigid_shiny_experiment_v3,2022.2.4,60.15815581
298,0,0,-19.53749142,"shiny_rigid_machineShop_None_[19, 0, 0]_[-46, -50, -54]_None_1.838_2_5",rigid,shiny,-0.845137919,shiny,rigid,machineShop,None,"[19, 0, 0]","[-46, -50, -54]",None,1.838,2,0,0,2,1,1,-0.639498798,validationSet_v7_movies/298.mp4,,,,,2,2,42,2,validationSet_v7_movies/282.mp4,validationSet_v7_movies/264.mp4,shiny,282,264,-0.595086578,0.03223399,-0.706004158,right,right,1,2.6996279,omer,2023-04-10_15h00.57.767,non_rigid_shiny_experiment_v3,2022.2.4,60.15815581
281,0,0,-18.99610056,"shiny_rigid_machineShop_None_[76, 0, 0]_[-53, 38, 48]_None_1.693_2_0",rigid,shiny,-0.825194501,shiny,rigid,machineShop,None,"[76, 0, 0]","[-53, 38, 48]",None,1.693,2,0,0,2,1,1,-0.621778058,validationSet_v7_movies/281.mp4,,,,,2,3,43,3,validationSet_v7_movies/280.mp4,validationSet_v7_movies/392.mp4,shiny,280,392,-0.570944753,-0.002595989,-0.639635635,right,left,0,1.9234984,omer,2023-04-10_15h00.57.767,non_rigid_shiny_experiment_v3,2022.2.4,60.15815581
282,0,0,-18.18064232,"shiny_rigid_machineShop_None_[68, 0, 0]_[48, 43, -35]_None_1.08_0_14",rigid,shiny,-0.795155161,shiny,rigid,machineShop,None,"[68, 0, 0]","[48, 43, -35]",None,1.08,0,0,0,2,1,1,-0.595086578,validationSet_v7_movies/282.mp4,,,,,2,4,44,4,validationSet_v7_movies/182.mp4,validationSet_v7_movies/155.mp4,shiny,182,155,-0.684325772,0.053612941,-0.83049692,right,right,1,9.6058212,omer,2023-04-10_15h00.57.767,non_rigid_shiny_experiment_v3,2022.2.4,60.15815581
294,0,0,-18.1286322,"shiny_rigid_machineShop_None_[26, 0, 0]_[48, -42, -46]_None_1.876_2_15",rigid,shiny,-0.793239245,shiny,rigid,machineShop,None,"[26, 0, 0]","[48, -42, -46]",None,1.876,2,0,0,2,1,1,-0.593384189,validationSet_v7_movies/294.mp4,,,,,2,5,45,5,validationSet_v7_movies/110.mp4,validationSet_v7_movies/276.mp4,shiny,110,276,-0.582716876,-0.009930609,-0.644629726,right,right,1,1.0982213,omer,2023-04-10_15h00.57.767,non_rigid_shiny_experiment_v3,2022.2.4,60.15815581
110,0,0,-17.80273237,"shiny_soft_lobby_None_[61, 0, 0]_[61, 0, 0]_FORCE_1.816_1_19",soft,shiny,-0.781233951,shiny,soft,lobby,None,"[61, 0, 0]","[61, 0, 0]",FORCE,1.816,1,0,1,1,-1,-1,-0.582716876,validationSet_v7_movies/110.mp4,,,,,2,6,46,6,validationSet_v7_movies/151.mp4,validationSet_v7_movies/188.mp4,shiny,151,188,-0.582218412,0.113420068,-0.782891051,left,right,0,1.2616154,omer,2023-04-10_15h00.57.767,non_rigid_shiny_experiment_v3,2022.2.4,60.15815581
151,0,0,-17.78750367,"shiny_soft_galileo_None_[54, 0, 0]_[54, 0, 0]_MAGNET_1.292_0_7",soft,shiny,-0.780672966,shiny,soft,galileo,None,"[54, 0, 0]","[54, 0, 0]",MAGNET,1.292,0,0,1,1,-1,-1,-0.582218412,validationSet_v7_movies/151.mp4,,,,,2,7,47,7,validationSet_v7_movies/298.mp4,validationSet_v7_movies/67.mp4,shiny,298,67,-0.639498798,0.137511452,-0.874469123,right,right,1,3.8876219,omer,2023-04-10_15h00.57.767,non_rigid_shiny_experiment_v3,2022.2.4,60.15815581
280,0,0,-17.44307924,"shiny_rigid_machineShop_None_[88, 0, 0]_[-54, -35, 29]_None_1.046_0_11",rigid,shiny,-0.767985274,shiny,rigid,machineShop,None,"[88, 0, 0]","[-54, -35, 29]",None,1.046,0,0,0,2,1,1,-0.570944753,validationSet_v7_movies/280.mp4,,,,,2,8,48,8,validationSet_v7_movies/294.mp4,validationSet_v7_movies/235.mp4,shiny,294,235,-0.593384189,-0.019665532,-0.645679064,right,left,0,7.3402799,omer,2023-04-10_15h00.57.767,non_rigid_shiny_experiment_v3,2022.2.4,60.15815581
117,0,0,-17.19589897,"shiny_soft_lobby_None_[12, 0, 0]_[12, 0, 0]_WIND_1.567_1_13",soft,shiny,-0.758879802,shiny,soft,lobby,None,"[12, 0, 0]","[12, 0, 0]",WIND,1.567,1,0,1,1,-1,-1,-0.562854078,validationSet_v7_movies/117.mp4,,,,,2,9,49,9,validationSet_v7_movies/126.mp4,validationSet_v7_movies/311.mp4,shiny,126,311,-0.777101626,-0.020533448,-0.851463041,left,right,0,0.8665231,omer,2023-04-10_15h00.57.767,non_rigid_shiny_experiment_v3,2022.2.4,60.15815581
311,0,0,-0.627322638,"shiny_rigid_lobby_None_[32, 0, 0]_[47, -44, 0]_None_1.844_2_15",rigid,shiny,-0.148536959,shiny,rigid,lobby,None,"[32, 0, 0]","[47, -44, 0]",None,1.844,2,0,0,2,1,1,-0.020533448,validationSet_v7_movies/311.mp4,,,,,2,10,50,10,validationSet_v7_movies/281.mp4,validationSet_v7_movies/311.mp4,shiny,281,311,-0.621778058,-0.020533448,-0.676657542,right,right,1,13.9390964,omer,2023-04-10_15h00.57.767,non_rigid_shiny_experiment_v3,2022.2.4,60.15815581
235,0,0,-0.60080669,"shiny_rigid_uenoShrine_None_[31, 0, 0]_[-44, 30, 36]_None_0.941_0_5",rigid,shiny,-0.147560181,shiny,rigid,uenoShrine,None,"[31, 0, 0]","[-44, 30, 36]",None,0.941,0,0,0,2,1,1,-0.019665532,validationSet_v7_movies/235.mp4,,,,,2,11,51,11,validationSet_v7_movies/117.mp4,validationSet_v7_movies/366.mp4,shiny,117,366,-0.562854078,0.09018918,-0.734953194,left,left,1,1.7604898,omer,2023-04-10_15h00.57.767,non_rigid_shiny_experiment_v3,2022.2.4,60.15815581
276,0,0,-0.303392566,"shiny_rigid_rnl_None_[21, 0, 0]_[-46, 39, 0]_None_1.97_2_19",rigid,shiny,-0.136604225,shiny,rigid,rnl,None,"[21, 0, 0]","[-46, 39, 0]",None,1.97,2,0,0,2,1,1,-0.009930609,validationSet_v7_movies/276.mp4,,,,,2,12,52,12,validationSet_v7_movies/282.mp4,validationSet_v7_movies/340.mp4,shiny,282,340,-0.595086578,-0.007059391,-0.661782285,right,right,1,3.3065719,omer,2023-04-10_15h00.57.767,non_rigid_shiny_experiment_v3,2022.2.4,60.15815581
340,0,0,-0.215673261,"shiny_rigid_galileo_None_[9, 0, 0]_[-52, -57, -37]_None_1.011_0_6",rigid,shiny,-0.133372876,shiny,rigid,galileo,None,"[9, 0, 0]","[-52, -57, -37]",None,1.011,0,0,0,2,1,1,-0.007059391,validationSet_v7_movies/340.mp4,,,,,2,13,53,13,validationSet_v7_movies/280.mp4,validationSet_v7_movies/264.mp4,shiny,280,264,-0.570944753,0.03223399,-0.678834271,left,right,0,3.1598863,omer,2023-04-10_15h00.57.767,non_rigid_shiny_experiment_v3,2022.2.4,60.15815581
392,0,0,-0.079310728,"shiny_rigid_abandoned_None_[30, 0, 0]_[29, 35, 43]_None_1.516_2_9",rigid,shiny,-0.128349639,shiny,rigid,abandoned,None,"[30, 0, 0]","[29, 35, 43]",None,1.516,2,0,0,2,1,1,-0.002595989,validationSet_v7_movies/392.mp4,,,,,2,14,54,14,validationSet_v7_movies/182.mp4,validationSet_v7_movies/392.mp4,shiny,182,392,-0.684325772,-0.002595989,-0.767237814,left,right,0,5.9735258,omer,2023-04-10_15h00.57.767,non_rigid_shiny_experiment_v3,2022.2.4,60.15815581
264,0,1,0.984788891,"shiny_rigid_rnl_None_[66, 0, 0]_[33, -42, 42]_None_1.956_1_2",rigid,shiny,-0.089151003,shiny,rigid,rnl,None,"[66, 0, 0]","[33, -42, 42]",None,1.956,1,0,0,2,1,1,0.03223399,validationSet_v7_movies/264.mp4,,,,,2,15,55,15,validationSet_v7_movies/110.mp4,validationSet_v7_movies/155.mp4,shiny,110,155,-0.582716876,0.053612941,-0.716143418,left,left,1,1.9929975,omer,2023-04-10_15h00.57.767,non_rigid_shiny_experiment_v3,2022.2.4,60.15815581
155,0,1,1.637942683,"shiny_soft_galileo_None_[24, 0, 0]_[24, 0, 0]_VORTEX_0.969_0_4",soft,shiny,-0.065090533,shiny,soft,galileo,None,"[24, 0, 0]","[24, 0, 0]",VORTEX,0.969,0,0,1,1,-1,-1,0.053612941,validationSet_v7_movies/155.mp4,,,,,2,16,56,16,validationSet_v7_movies/151.mp4,validationSet_v7_movies/276.mp4,shiny,151,276,-0.582218412,-0.009930609,-0.644068741,left,right,0,2.381344,omer,2023-04-10_15h00.57.767,non_rigid_shiny_experiment_v3,2022.2.4,60.15815581
366,0,1,2.755392713,"shiny_rigid_castel_None_[71, 0, 0]_[-32, -29, -43]_None_1.897_2_18",rigid,shiny,-0.023926608,shiny,rigid,castel,None,"[71, 0, 0]","[-32, -29, -43]",None,1.897,2,0,0,2,1,1,0.09018918,validationSet_v7_movies/366.mp4,,,,,2,17,57,17,validationSet_v7_movies/298.mp4,validationSet_v7_movies/188.mp4,shiny,298,188,-0.639498798,0.113420068,-0.847356004,left,right,0,1.8796332,omer,2023-04-10_15h00.57.767,non_rigid_shiny_experiment_v3,2022.2.4,60.15815581
188,0,1,3.465125528,"shiny_soft_abandoned_None_[61, 0, 0]_[61, 0, 0]_FORCE_1.086_0_0",soft,shiny,0.002218085,shiny,soft,abandoned,None,"[61, 0, 0]","[61, 0, 0]",FORCE,1.086,0,0,1,1,-1,-1,0.113420068,validationSet_v7_movies/188.mp4,,,,,2,18,58,18,validationSet_v7_movies/294.mp4,validationSet_v7_movies/67.mp4,shiny,294,67,-0.593384189,0.137511452,-0.822570449,right,right,1,2.7976988,omer,2023-04-10_15h00.57.767,non_rigid_shiny_experiment_v3,2022.2.4,60.15815581
67,0,1,4.201147548,"shiny_soft_rnl_None_[69, 0, 0]_[69, 0, 0]_TURBULENCE_1.408_1_6",soft,shiny,0.029331204,shiny,soft,rnl,None,"[69, 0, 0]","[69, 0, 0]",TURBULENCE,1.408,1,0,1,1,-1,-1,0.137511452,validationSet_v7_movies/67.mp4,,,,,2,19,59,19,validationSet_v7_movies/126.mp4,validationSet_v7_movies/235.mp4,shiny,126,235,-0.777101626,-0.019665532,-0.852439819,left,right,0,1.1470637,omer,2023-04-10_15h00.57.767,non_rigid_shiny_experiment_v3,2022.2.4,60.15815581
126,0,0,-23.74143063,"shiny_soft_gothicManor_None_[7, 0, 0]_[7, 0, 0]_CHARGE_1.961_1_5",soft,shiny,-1,shiny,soft,gothicManor,None,"[7, 0, 0]","[7, 0, 0]",CHARGE,1.961,1,0,1,1,-1,-1,-0.777101626,validationSet_v7_movies/126.mp4,,,,,3,0,60,0,validationSet_v7_movies/281.mp4,validationSet_v7_movies/235.mp4,shiny,281,235,-0.621778058,-0.019665532,-0.67763432,left,left,1,8.2432406,omer,2023-04-10_15h00.57.767,non_rigid_shiny_experiment_v3,2022.2.4,60.15815581
182,0,0,-20.90701178,"shiny_soft_abandoned_None_[86, 0, 0]_[86, 0, 0]_WIND_1.99_2_7",soft,shiny,-0.895587453,shiny,soft,abandoned,None,"[86, 0, 0]","[86, 0, 0]",WIND,1.99,2,0,1,1,-1,-1,-0.684325772,validationSet_v7_movies/182.mp4,,,,,3,1,61,1,validationSet_v7_movies/117.mp4,validationSet_v7_movies/311.mp4,shiny,117,311,-0.562854078,-0.020533448,-0.610342843,right,right,1,1.8683165,omer,2023-04-10_15h00.57.767,non_rigid_shiny_experiment_v3,2022.2.4,60.15815581
298,0,0,-19.53749142,"shiny_rigid_machineShop_None_[19, 0, 0]_[-46, -50, -54]_None_1.838_2_5",rigid,shiny,-0.845137919,shiny,rigid,machineShop,None,"[19, 0, 0]","[-46, -50, -54]",None,1.838,2,0,0,2,1,1,-0.639498798,validationSet_v7_movies/298.mp4,,,,,3,2,62,2,validationSet_v7_movies/282.mp4,validationSet_v7_movies/366.mp4,shiny,282,366,-0.595086578,0.09018918,-0.771228553,right,right,1,1.1046264,omer,2023-04-10_15h00.57.767,non_rigid_shiny_experiment_v3,2022.2.4,60.15815581
281,0,0,-18.99610056,"shiny_rigid_machineShop_None_[76, 0, 0]_[-53, 38, 48]_None_1.693_2_0",rigid,shiny,-0.825194501,shiny,rigid,machineShop,None,"[76, 0, 0]","[-53, 38, 48]",None,1.693,2,0,0,2,1,1,-0.621778058,validationSet_v7_movies/281.mp4,,,,,3,3,63,3,validationSet_v7_movies/280.mp4,validationSet_v7_movies/340.mp4,shiny,280,340,-0.570944753,-0.007059391,-0.634612398,left,left,1,2.4589541,omer,2023-04-10_15h00.57.767,non_rigid_shiny_experiment_v3,2022.2.4,60.15815581
282,0,0,-18.18064232,"shiny_rigid_machineShop_None_[68, 0, 0]_[48, 43, -35]_None_1.08_0_14",rigid,shiny,-0.795155161,shiny,rigid,machineShop,None,"[68, 0, 0]","[48, 43, -35]",None,1.08,0,0,0,2,1,1,-0.595086578,validationSet_v7_movies/282.mp4,,,,,3,4,64,4,validationSet_v7_movies/182.mp4,validationSet_v7_movies/264.mp4,shiny,182,264,-0.684325772,0.03223399,-0.80643645,right,right,1,0.9860139,omer,2023-04-10_15h00.57.767,non_rigid_shiny_experiment_v3,2022.2.4,60.15815581
294,0,0,-18.1286322,"shiny_rigid_machineShop_None_[26, 0, 0]_[48, -42, -46]_None_1.876_2_15",rigid,shiny,-0.793239245,shiny,rigid,machineShop,None,"[26, 0, 0]","[48, -42, -46]",None,1.876,2,0,0,2,1,1,-0.593384189,validationSet_v7_movies/294.mp4,,,,,3,5,65,5,validationSet_v7_movies/110.mp4,validationSet_v7_movies/392.mp4,shiny,110,392,-0.582716876,-0.002595989,-0.652884312,right,right,1,3.5663445,omer,2023-04-10_15h00.57.767,non_rigid_shiny_experiment_v3,2022.2.4,60.15815581
110,0,0,-17.80273237,"shiny_soft_lobby_None_[61, 0, 0]_[61, 0, 0]_FORCE_1.816_1_19",soft,shiny,-0.781233951,shiny,soft,lobby,None,"[61, 0, 0]","[61, 0, 0]",FORCE,1.816,1,0,1,1,-1,-1,-0.582716876,validationSet_v7_movies/110.mp4,,,,,3,6,66,6,validationSet_v7_movies/151.mp4,validationSet_v7_movies/155.mp4,shiny,151,155,-0.582218412,0.053612941,-0.715582433,right,left,0,14.6581216,omer,2023-04-10_15h00.57.767,non_rigid_shiny_experiment_v3,2022.2.4,60.15815581
151,0,0,-17.78750367,"shiny_soft_galileo_None_[54, 0, 0]_[54, 0, 0]_MAGNET_1.292_0_7",soft,shiny,-0.780672966,shiny,soft,galileo,None,"[54, 0, 0]","[54, 0, 0]",MAGNET,1.292,0,0,1,1,-1,-1,-0.582218412,validationSet_v7_movies/151.mp4,,,,,3,7,67,7,validationSet_v7_movies/298.mp4,validationSet_v7_movies/276.mp4,shiny,298,276,-0.639498798,-0.009930609,-0.708533694,left,left,1,14.5063631,omer,2023-04-10_15h00.57.767,non_rigid_shiny_experiment_v3,2022.2.4,60.15815581
280,0,0,-17.44307924,"shiny_rigid_machineShop_None_[88, 0, 0]_[-54, -35, 29]_None_1.046_0_11",rigid,shiny,-0.767985274,shiny,rigid,machineShop,None,"[88, 0, 0]","[-54, -35, 29]",None,1.046,0,0,0,2,1,1,-0.570944753,validationSet_v7_movies/280.mp4,,,,,3,8,68,8,validationSet_v7_movies/294.mp4,validationSet_v7_movies/188.mp4,shiny,294,188,-0.593384189,0.113420068,-0.79545733,right,left,0,2.9898106,omer,2023-04-10_15h00.57.767,non_rigid_shiny_experiment_v3,2022.2.4,60.15815581
117,0,0,-17.19589897,"shiny_soft_lobby_None_[12, 0, 0]_[12, 0, 0]_WIND_1.567_1_13",soft,shiny,-0.758879802,shiny,soft,lobby,None,"[12, 0, 0]","[12, 0, 0]",WIND,1.567,1,0,1,1,-1,-1,-0.562854078,validationSet_v7_movies/117.mp4,,,,,3,9,69,9,validationSet_v7_movies/126.mp4,validationSet_v7_movies/67.mp4,shiny,126,67,-0.777101626,0.137511452,-1.029331204,left,right,0,0.9343081,omer,2023-04-10_15h00.57.767,non_rigid_shiny_experiment_v3,2022.2.4,60.15815581
311,0,0,-0.627322638,"shiny_rigid_lobby_None_[32, 0, 0]_[47, -44, 0]_None_1.844_2_15",rigid,shiny,-0.148536959,shiny,rigid,lobby,None,"[32, 0, 0]","[47, -44, 0]",None,1.844,2,0,0,2,1,1,-0.020533448,validationSet_v7_movies/311.mp4,,,,,3,10,70,10,validationSet_v7_movies/281.mp4,validationSet_v7_movies/67.mp4,shiny,281,67,-0.621778058,0.137511452,-0.854525705,right,right,1,1.7682279,omer,2023-04-10_15h00.57.767,non_rigid_shiny_experiment_v3,2022.2.4,60.15815581
235,0,0,-0.60080669,"shiny_rigid_uenoShrine_None_[31, 0, 0]_[-44, 30, 36]_None_0.941_0_5",rigid,shiny,-0.147560181,shiny,rigid,uenoShrine,None,"[31, 0, 0]","[-44, 30, 36]",None,0.941,0,0,0,2,1,1,-0.019665532,validationSet_v7_movies/235.mp4,,,,,3,11,71,11,validationSet_v7_movies/117.mp4,validationSet_v7_movies/235.mp4,shiny,117,235,-0.562854078,-0.019665532,-0.611319621,right,right,1,2.7954194,omer,2023-04-10_15h00.57.767,non_rigid_shiny_experiment_v3,2022.2.4,60.15815581
276,0,0,-0.303392566,"shiny_rigid_rnl_None_[21, 0, 0]_[-46, 39, 0]_None_1.97_2_19",rigid,shiny,-0.136604225,shiny,rigid,rnl,None,"[21, 0, 0]","[-46, 39, 0]",None,1.97,2,0,0,2,1,1,-0.009930609,validationSet_v7_movies/276.mp4,,,,,3,12,72,12,validationSet_v7_movies/282.mp4,validationSet_v7_movies/311.mp4,shiny,282,311,-0.595086578,-0.020533448,-0.646618202,right,right,1,2.214725,omer,2023-04-10_15h00.57.767,non_rigid_shiny_experiment_v3,2022.2.4,60.15815581
340,0,0,-0.215673261,"shiny_rigid_galileo_None_[9, 0, 0]_[-52, -57, -37]_None_1.011_0_6",rigid,shiny,-0.133372876,shiny,rigid,galileo,None,"[9, 0, 0]","[-52, -57, -37]",None,1.011,0,0,0,2,1,1,-0.007059391,validationSet_v7_movies/340.mp4,,,,,3,13,73,13,validationSet_v7_movies/280.mp4,validationSet_v7_movies/366.mp4,shiny,280,366,-0.570944753,0.09018918,-0.744058666,left,left,1,1.4576834,omer,2023-04-10_15h00.57.767,non_rigid_shiny_experiment_v3,2022.2.4,60.15815581
392,0,0,-0.079310728,"shiny_rigid_abandoned_None_[30, 0, 0]_[29, 35, 43]_None_1.516_2_9",rigid,shiny,-0.128349639,shiny,rigid,abandoned,None,"[30, 0, 0]","[29, 35, 43]",None,1.516,2,0,0,2,1,1,-0.002595989,validationSet_v7_movies/392.mp4,,,,,3,14,74,14,validationSet_v7_movies/182.mp4,validationSet_v7_movies/340.mp4,shiny,182,340,-0.684325772,-0.007059391,-0.762214577,left,right,0,2.3447132,omer,2023-04-10_15h00.57.767,non_rigid_shiny_experiment_v3,2022.2.4,60.15815581
264,0,1,0.984788891,"shiny_rigid_rnl_None_[66, 0, 0]_[33, -42, 42]_None_1.956_1_2",rigid,shiny,-0.089151003,shiny,rigid,rnl,None,"[66, 0, 0]","[33, -42, 42]",None,1.956,1,0,0,2,1,1,0.03223399,validationSet_v7_movies/264.mp4,,,,,3,15,75,15,validationSet_v7_movies/110.mp4,validationSet_v7_movies/264.mp4,shiny,110,264,-0.582716876,0.03223399,-0.692082948,left,left,1,1.6133599,omer,2023-04-10_15h00.57.767,non_rigid_shiny_experiment_v3,2022.2.4,60.15815581
155,0,1,1.637942683,"shiny_soft_galileo_None_[24, 0, 0]_[24, 0, 0]_VORTEX_0.969_0_4",soft,shiny,-0.065090533,shiny,soft,galileo,None,"[24, 0, 0]","[24, 0, 0]",VORTEX,0.969,0,0,1,1,-1,-1,0.053612941,validationSet_v7_movies/155.mp4,,,,,3,16,76,16,validationSet_v7_movies/151.mp4,validationSet_v7_movies/392.mp4,shiny,151,392,-0.582218412,-0.002595989,-0.652323327,right,left,0,1.8821797,omer,2023-04-10_15h00.57.767,non_rigid_shiny_experiment_v3,2022.2.4,60.15815581
366,0,1,2.755392713,"shiny_rigid_castel_None_[71, 0, 0]_[-32, -29, -43]_None_1.897_2_18",rigid,shiny,-0.023926608,shiny,rigid,castel,None,"[71, 0, 0]","[-32, -29, -43]",None,1.897,2,0,0,2,1,1,0.09018918,validationSet_v7_movies/366.mp4,,,,,3,17,77,17,validationSet_v7_movies/298.mp4,validationSet_v7_movies/155.mp4,shiny,298,155,-0.639498798,0.053612941,-0.780047386,right,right,1,3.1627287,omer,2023-04-10_15h00.57.767,non_rigid_shiny_experiment_v3,2022.2.4,60.15815581
188,0,1,3.465125528,"shiny_soft_abandoned_None_[61, 0, 0]_[61, 0, 0]_FORCE_1.086_0_0",soft,shiny,0.002218085,shiny,soft,abandoned,None,"[61, 0, 0]","[61, 0, 0]",FORCE,1.086,0,0,1,1,-1,-1,0.113420068,validationSet_v7_movies/188.mp4,,,,,3,18,78,18,validationSet_v7_movies/294.mp4,validationSet_v7_movies/276.mp4,shiny,294,276,-0.593384189,-0.009930609,-0.65663502,left,left,1,3.2671292,omer,2023-04-10_15h00.57.767,non_rigid_shiny_experiment_v3,2022.2.4,60.15815581
67,0,1,4.201147548,"shiny_soft_rnl_None_[69, 0, 0]_[69, 0, 0]_TURBULENCE_1.408_1_6",soft,shiny,0.029331204,shiny,soft,rnl,None,"[69, 0, 0]","[69, 0, 0]",TURBULENCE,1.408,1,0,1,1,-1,-1,0.137511452,validationSet_v7_movies/67.mp4,,,,,3,19,79,19,validationSet_v7_movies/126.mp4,validationSet_v7_movies/188.mp4,shiny,126,188,-0.777101626,0.113420068,-1.002218085,left,right,0,1.8210404,omer,2023-04-10_15h00.57.767,non_rigid_shiny_experiment_v3,2022.2.4,60.15815581
126,0,0,-23.74143063,"shiny_soft_gothicManor_None_[7, 0, 0]_[7, 0, 0]_CHARGE_1.961_1_5",soft,shiny,-1,shiny,soft,gothicManor,None,"[7, 0, 0]","[7, 0, 0]",CHARGE,1.961,1,0,1,1,-1,-1,-0.777101626,validationSet_v7_movies/126.mp4,,,,,4,0,80,0,validationSet_v7_movies/281.mp4,validationSet_v7_movies/188.mp4,shiny,281,188,-0.621778058,0.113420068,-0.827412586,right,left,0,6.0334108,omer,2023-04-10_15h00.57.767,non_rigid_shiny_experiment_v3,2022.2.4,60.15815581
182,0,0,-20.90701178,"shiny_soft_abandoned_None_[86, 0, 0]_[86, 0, 0]_WIND_1.99_2_7",soft,shiny,-0.895587453,shiny,soft,abandoned,None,"[86, 0, 0]","[86, 0, 0]",WIND,1.99,2,0,1,1,-1,-1,-0.684325772,validationSet_v7_movies/182.mp4,,,,,4,1,81,1,validationSet_v7_movies/117.mp4,validationSet_v7_movies/67.mp4,shiny,117,67,-0.562854078,0.137511452,-0.788211006,right,right,1,4.780311,omer,2023-04-10_15h00.57.767,non_rigid_shiny_experiment_v3,2022.2.4,60.15815581
298,0,0,-19.53749142,"shiny_rigid_machineShop_None_[19, 0, 0]_[-46, -50, -54]_None_1.838_2_5",rigid,shiny,-0.845137919,shiny,rigid,machineShop,None,"[19, 0, 0]","[-46, -50, -54]",None,1.838,2,0,0,2,1,1,-0.639498798,validationSet_v7_movies/298.mp4,,,,,4,2,82,2,validationSet_v7_movies/282.mp4,validationSet_v7_movies/235.mp4,shiny,282,235,-0.595086578,-0.019665532,-0.64759498,left,left,1,10.3749484,omer,2023-04-10_15h00.57.767,non_rigid_shiny_experiment_v3,2022.2.4,60.15815581
281,0,0,-18.99610056,"shiny_rigid_machineShop_None_[76, 0, 0]_[-53, 38, 48]_None_1.693_2_0",rigid,shiny,-0.825194501,shiny,rigid,machineShop,None,"[76, 0, 0]","[-53, 38, 48]",None,1.693,2,0,0,2,1,1,-0.621778058,validationSet_v7_movies/281.mp4,,,,,4,3,83,3,validationSet_v7_movies/280.mp4,validationSet_v7_movies/311.mp4,shiny,280,311,-0.570944753,-0.020533448,-0.619448315,right,left,0,2.3593901,omer,2023-04-10_15h00.57.767,non_rigid_shiny_experiment_v3,2022.2.4,60.15815581
282,0,0,-18.18064232,"shiny_rigid_machineShop_None_[68, 0, 0]_[48, 43, -35]_None_1.08_0_14",rigid,shiny,-0.795155161,shiny,rigid,machineShop,None,"[68, 0, 0]","[48, 43, -35]",None,1.08,0,0,0,2,1,1,-0.595086578,validationSet_v7_movies/282.mp4,,,,,4,4,84,4,validationSet_v7_movies/182.mp4,validationSet_v7_movies/366.mp4,shiny,182,366,-0.684325772,0.09018918,-0.871660845,right,right,1,1.6411322,omer,2023-04-10_15h00.57.767,non_rigid_shiny_experiment_v3,2022.2.4,60.15815581
294,0,0,-18.1286322,"shiny_rigid_machineShop_None_[26, 0, 0]_[48, -42, -46]_None_1.876_2_15",rigid,shiny,-0.793239245,shiny,rigid,machineShop,None,"[26, 0, 0]","[48, -42, -46]",None,1.876,2,0,0,2,1,1,-0.593384189,validationSet_v7_movies/294.mp4,,,,,4,5,85,5,validationSet_v7_movies/110.mp4,validationSet_v7_movies/340.mp4,shiny,110,340,-0.582716876,-0.007059391,-0.647861075,left,left,1,3.657314,omer,2023-04-10_15h00.57.767,non_rigid_shiny_experiment_v3,2022.2.4,60.15815581
110,0,0,-17.80273237,"shiny_soft_lobby_None_[61, 0, 0]_[61, 0, 0]_FORCE_1.816_1_19",soft,shiny,-0.781233951,shiny,soft,lobby,None,"[61, 0, 0]","[61, 0, 0]",FORCE,1.816,1,0,1,1,-1,-1,-0.582716876,validationSet_v7_movies/110.mp4,,,,,4,6,86,6,validationSet_v7_movies/151.mp4,validationSet_v7_movies/264.mp4,shiny,151,264,-0.582218412,0.03223399,-0.691521963,right,left,0,2.4010139,omer,2023-04-10_15h00.57.767,non_rigid_shiny_experiment_v3,2022.2.4,60.15815581
151,0,0,-17.78750367,"shiny_soft_galileo_None_[54, 0, 0]_[54, 0, 0]_MAGNET_1.292_0_7",soft,shiny,-0.780672966,shiny,soft,galileo,None,"[54, 0, 0]","[54, 0, 0]",MAGNET,1.292,0,0,1,1,-1,-1,-0.582218412,validationSet_v7_movies/151.mp4,,,,,4,7,87,7,validationSet_v7_movies/298.mp4,validationSet_v7_movies/392.mp4,shiny,298,392,-0.639498798,-0.002595989,-0.71678828,right,right,1,6.1415191,omer,2023-04-10_15h00.57.767,non_rigid_shiny_experiment_v3,2022.2.4,60.15815581
280,0,0,-17.44307924,"shiny_rigid_machineShop_None_[88, 0, 0]_[-54, -35, 29]_None_1.046_0_11",rigid,shiny,-0.767985274,shiny,rigid,machineShop,None,"[88, 0, 0]","[-54, -35, 29]",None,1.046,0,0,0,2,1,1,-0.570944753,validationSet_v7_movies/280.mp4,,,,,4,8,88,8,validationSet_v7_movies/294.mp4,validationSet_v7_movies/155.mp4,shiny,294,155,-0.593384189,0.053612941,-0.728148712,right,right,1,2.0343851,omer,2023-04-10_15h00.57.767,non_rigid_shiny_experiment_v3,2022.2.4,60.15815581
117,0,0,-17.19589897,"shiny_soft_lobby_None_[12, 0, 0]_[12, 0, 0]_WIND_1.567_1_13",soft,shiny,-0.758879802,shiny,soft,lobby,None,"[12, 0, 0]","[12, 0, 0]",WIND,1.567,1,0,1,1,-1,-1,-0.562854078,validationSet_v7_movies/117.mp4,,,,,4,9,89,9,validationSet_v7_movies/126.mp4,validationSet_v7_movies/276.mp4,shiny,126,276,-0.777101626,-0.009930609,-0.863395775,right,left,0,1.7250054,omer,2023-04-10_15h00.57.767,non_rigid_shiny_experiment_v3,2022.2.4,60.15815581
311,0,0,-0.627322638,"shiny_rigid_lobby_None_[32, 0, 0]_[47, -44, 0]_None_1.844_2_15",rigid,shiny,-0.148536959,shiny,rigid,lobby,None,"[32, 0, 0]","[47, -44, 0]",None,1.844,2,0,0,2,1,1,-0.020533448,validationSet_v7_movies/311.mp4,,,,,4,10,90,10,validationSet_v7_movies/281.mp4,validationSet_v7_movies/276.mp4,shiny,281,276,-0.621778058,-0.009930609,-0.688590276,right,left,0,10.5875527,omer,2023-04-10_15h00.57.767,non_rigid_shiny_experiment_v3,2022.2.4,60.15815581
235,0,0,-0.60080669,"shiny_rigid_uenoShrine_None_[31, 0, 0]_[-44, 30, 36]_None_0.941_0_5",rigid,shiny,-0.147560181,shiny,rigid,uenoShrine,None,"[31, 0, 0]","[-44, 30, 36]",None,0.941,0,0,0,2,1,1,-0.019665532,validationSet_v7_movies/235.mp4,,,,,4,11,91,11,validationSet_v7_movies/117.mp4,validationSet_v7_movies/188.mp4,shiny,117,188,-0.562854078,0.113420068,-0.761097887,right,left,0,4.1778457,omer,2023-04-10_15h00.57.767,non_rigid_shiny_experiment_v3,2022.2.4,60.15815581
276,0,0,-0.303392566,"shiny_rigid_rnl_None_[21, 0, 0]_[-46, 39, 0]_None_1.97_2_19",rigid,shiny,-0.136604225,shiny,rigid,rnl,None,"[21, 0, 0]","[-46, 39, 0]",None,1.97,2,0,0,2,1,1,-0.009930609,validationSet_v7_movies/276.mp4,,,,,4,12,92,12,validationSet_v7_movies/282.mp4,validationSet_v7_movies/67.mp4,shiny,282,67,-0.595086578,0.137511452,-0.824486365,right,right,1,9.0471111,omer,2023-04-10_15h00.57.767,non_rigid_shiny_experiment_v3,2022.2.4,60.15815581
340,0,0,-0.215673261,"shiny_rigid_galileo_None_[9, 0, 0]_[-52, -57, -37]_None_1.011_0_6",rigid,shiny,-0.133372876,shiny,rigid,galileo,None,"[9, 0, 0]","[-52, -57, -37]",None,1.011,0,0,0,2,1,1,-0.007059391,validationSet_v7_movies/340.mp4,,,,,4,13,93,13,validationSet_v7_movies/280.mp4,validationSet_v7_movies/235.mp4,shiny,280,235,-0.570944753,-0.019665532,-0.620425093,left,right,0,1.5557845,omer,2023-04-10_15h00.57.767,non_rigid_shiny_experiment_v3,2022.2.4,60.15815581
392,0,0,-0.079310728,"shiny_rigid_abandoned_None_[30, 0, 0]_[29, 35, 43]_None_1.516_2_9",rigid,shiny,-0.128349639,shiny,rigid,abandoned,None,"[30, 0, 0]","[29, 35, 43]",None,1.516,2,0,0,2,1,1,-0.002595989,validationSet_v7_movies/392.mp4,,,,,4,14,94,14,validationSet_v7_movies/182.mp4,validationSet_v7_movies/311.mp4,shiny,182,311,-0.684325772,-0.020533448,-0.747050494,left,right,0,3.6276433,omer,2023-04-10_15h00.57.767,non_rigid_shiny_experiment_v3,2022.2.4,60.15815581
264,0,1,0.984788891,"shiny_rigid_rnl_None_[66, 0, 0]_[33, -42, 42]_None_1.956_1_2",rigid,shiny,-0.089151003,shiny,rigid,rnl,None,"[66, 0, 0]","[33, -42, 42]",None,1.956,1,0,0,2,1,1,0.03223399,validationSet_v7_movies/264.mp4,,,,,4,15,95,15,validationSet_v7_movies/110.mp4,validationSet_v7_movies/366.mp4,shiny,110,366,-0.582716876,0.09018918,-0.757307343,right,right,1,1.8295586,omer,2023-04-10_15h00.57.767,non_rigid_shiny_experiment_v3,2022.2.4,60.15815581
155,0,1,1.637942683,"shiny_soft_galileo_None_[24, 0, 0]_[24, 0, 0]_VORTEX_0.969_0_4",soft,shiny,-0.065090533,shiny,soft,galileo,None,"[24, 0, 0]","[24, 0, 0]",VORTEX,0.969,0,0,1,1,-1,-1,0.053612941,validationSet_v7_movies/155.mp4,,,,,4,16,96,16,validationSet_v7_movies/151.mp4,validationSet_v7_movies/340.mp4,shiny,151,340,-0.582218412,-0.007059391,-0.64730009,right,left,0,4.036764,omer,2023-04-10_15h00.57.767,non_rigid_shiny_experiment_v3,2022.2.4,60.15815581
366,0,1,2.755392713,"shiny_rigid_castel_None_[71, 0, 0]_[-32, -29, -43]_None_1.897_2_18",rigid,shiny,-0.023926608,shiny,rigid,castel,None,"[71, 0, 0]","[-32, -29, -43]",None,1.897,2,0,0,2,1,1,0.09018918,validationSet_v7_movies/366.mp4,,,,,4,17,97,17,validationSet_v7_movies/298.mp4,validationSet_v7_movies/264.mp4,shiny,298,264,-0.639498798,0.03223399,-0.755986916,right,right,1,3.186128,omer,2023-04-10_15h00.57.767,non_rigid_shiny_experiment_v3,2022.2.4,60.15815581
188,0,1,3.465125528,"shiny_soft_abandoned_None_[61, 0, 0]_[61, 0, 0]_FORCE_1.086_0_0",soft,shiny,0.002218085,shiny,soft,abandoned,None,"[61, 0, 0]","[61, 0, 0]",FORCE,1.086,0,0,1,1,-1,-1,0.113420068,validationSet_v7_movies/188.mp4,,,,,4,18,98,18,validationSet_v7_movies/294.mp4,validationSet_v7_movies/392.mp4,shiny,294,392,-0.593384189,-0.002595989,-0.664889606,right,left,0,5.6545676,omer,2023-04-10_15h00.57.767,non_rigid_shiny_experiment_v3,2022.2.4,60.15815581
67,0,1,4.201147548,"shiny_soft_rnl_None_[69, 0, 0]_[69, 0, 0]_TURBULENCE_1.408_1_6",soft,shiny,0.029331204,shiny,soft,rnl,None,"[69, 0, 0]","[69, 0, 0]",TURBULENCE,1.408,1,0,1,1,-1,-1,0.137511452,validationSet_v7_movies/67.mp4,,,,,4,19,99,19,validationSet_v7_movies/126.mp4,validationSet_v7_movies/155.mp4,shiny,126,155,-0.777101626,0.053612941,-0.934909467,left,right,0,4.1156834,omer,2023-04-10_15h00.57.767,non_rigid_shiny_experiment_v3,2022.2.4,60.15815581
,,,,,,,,,,,,,,,,,,,,,,,,,,,,,,,,,,,,,,,,,,0.48,,,,,,
